Data from HR4D30811__4__00004.txt Node

Date: Fri Jan 26 16:31:58 MST 2024
User: Brock
Spectrometer: HR4D3081
Trigger mode: 4
Integration Time (sec): 8.000000E0
Scans to average: 1
Electric dark correction enabled: true
Nonlinearity correction enabled: false
Boxcar width: 0
XAxis mode: Wavelengths
Number of Pixels in Spectrum: 3648
>>>>>Begin Spectral Data<<<<<
197.25	-1216.46
197.385	-1216.46
197.519	-1216.46
197.653	-1226.46
197.787	190.54
197.922	-144.46
198.056	57.54
198.19	-5.46
198.324	29.54
198.459	-210.46
198.593	414.54
198.727	-26.46
198.861	-91.46
198.996	211.54
199.13	-265.46
199.264	-186.46
199.398	-51.46
199.533	268.54
199.667	132.54
199.801	-70.46
199.935	-250.46
200.07	-11.46
200.204	1.54
200.338	-170.46
200.472	-192.46
200.606	-328.46
200.741	-151.46
200.875	-121.46
201.009	-111.46
201.143	-223.46
201.277	106.54
201.412	118.54
201.546	285.54
201.68	187.54
201.814	-151.46
201.948	71.54
202.082	-98.46
202.217	-319.46
202.351	-80.46
202.485	-28.46
202.619	-237.46
202.753	-345.46
202.887	313.54
203.021	109.54
203.156	251.54
203.29	40.54
203.424	-13.46
203.558	-160.46
203.692	-85.46
203.826	-285.46
203.96	-111.46
204.094	160.54
204.229	-167.46
204.363	-214.46
204.497	-305.46
204.631	-277.46
204.765	-215.46
204.899	-148.46
205.033	-150.46
205.167	-249.46
205.301	28.54
205.435	-335.46
205.569	-90.46
205.704	-49.46
205.838	-301.46
205.972	-125.46
206.106	509.54
206.24	-171.46
206.374	-213.46
206.508	9.54
206.642	44.54
206.776	-93.46
206.91	176.54
207.044	10.54
207.178	97.54
207.312	-4.46
207.446	-138.46
207.58	-189.46
207.714	-268.46
207.848	139.54
207.982	-359.46
208.116	24.54
208.25	-232.46
208.384	-137.46
208.518	-178.46
208.652	-243.46
208.786	-268.46
208.92	236.54
209.054	-58.46
209.188	-260.46
209.322	-162.46
209.456	-112.46
209.59	-256.46
209.724	-83.46
209.858	-49.46
209.992	-93.46
210.126	-173.46
210.26	-167.46
210.394	-77.46
210.528	-25.46
210.662	-203.46
210.796	-147.46
210.929	141.54
211.063	4.54
211.197	-64.46
211.331	-39.46
211.465	-194.46
211.599	89.54
211.733	119.54
211.867	-191.46
212.001	-175.46
212.135	-30.46
212.269	-238.46
212.402	-214.46
212.536	86.54
212.67	-149.46
212.804	-254.46
212.938	70.54
213.072	-213.46
213.206	-64.46
213.34	-160.46
213.473	-158.46
213.607	118.54
213.741	-289.46
213.875	-285.46
214.009	-249.46
214.143	-171.46
214.277	-126.46
214.41	-243.46
214.544	229.54
214.678	109.54
214.812	258.54
214.946	-264.46
215.08	-190.46
215.213	-205.46
215.347	-129.46
215.481	-84.46
215.615	-342.46
215.749	-10.46
215.882	-219.46
216.016	-301.46
216.15	65.54
216.284	194.54
216.418	2.54
216.551	97.54
216.685	25.54
216.819	-283.46
216.953	-174.46
217.086	258.54
217.22	-186.46
217.354	-5.46
217.488	86.54
217.621	93.54
217.755	-46.46
217.889	-124.46
218.023	-62.46
218.156	99.54
218.29	91.54
218.424	201.54
218.558	-251.46
218.691	-387.46
218.825	-140.46
218.959	403.54
219.092	-113.46
219.226	-321.46
219.36	-308.46
219.494	-50.46
219.627	-191.46
219.761	-214.46
219.895	-107.46
220.028	-297.46
220.162	499.54
220.296	134.54
220.429	-22.46
220.563	-50.46
220.697	-22.46
220.83	-208.46
220.964	-141.46
221.098	-277.46
221.231	-283.46
221.365	43.54
221.499	-220.46
221.632	-229.46
221.766	36.54
221.9	-98.46
222.033	84.54
222.167	87.54
222.3	-191.46
222.434	-14.46
222.568	234.54
222.701	-177.46
222.835	-141.46
222.968	-240.46
223.102	-227.46
223.236	-274.46
223.369	13.54
223.503	-2.46
223.636	-254.46
223.77	-170.46
223.904	-8.46
224.037	-171.46
224.171	65.54
224.304	4.54
224.438	-182.46
224.571	-100.46
224.705	153.54
224.839	-33.46
224.972	-329.46
225.106	-14.46
225.239	-82.46
225.373	77.54
225.506	-85.46
225.64	68.54
225.773	-133.46
225.907	-187.46
226.04	-332.46
226.174	-106.46
226.307	-56.46
226.441	-125.46
226.575	15.54
226.708	189.54
226.842	-100.46
226.975	-150.46
227.109	-213.46
227.242	21.54
227.375	30.54
227.509	-35.46
227.642	-153.46
227.776	39.54
227.909	54.54
228.043	-222.46
228.176	210.54
228.31	-261.46
228.443	309.54
228.577	-67.46
228.71	-130.46
228.844	-1.46
228.977	-262.46
229.111	-163.46
229.244	60.54
229.377	-327.46
229.511	-22.46
229.644	-202.46
229.778	-167.46
229.911	-210.46
230.044	-114.46
230.178	-43.46
230.311	-212.46
230.445	60.54
230.578	-223.46
230.711	-107.46
230.845	295.54
230.978	37.54
231.112	-259.46
231.245	-254.46
231.378	-230.46
231.512	48.54
231.645	-380.46
231.779	-306.46
231.912	-52.46
232.045	48.54
232.179	-154.46
232.312	-128.46
232.445	67.54
232.579	252.54
232.712	162.54
232.845	-195.46
232.979	-372.46
233.112	41.54
233.245	-94.46
233.379	-312.46
233.512	16.54
233.645	-262.46
233.779	-238.46
233.912	7.54
234.045	-172.46
234.179	26.54
234.312	-140.46
234.445	41.54
234.578	-37.46
234.712	4.54
234.845	20.54
234.978	-191.46
235.112	-46.46
235.245	114.54
235.378	-220.46
235.511	-21.46
235.645	7.54
235.778	-13.46
235.911	-145.46
236.044	-309.46
236.178	290.54
236.311	-273.46
236.444	-251.46
236.577	-234.46
236.711	-80.46
236.844	-380.46
236.977	-141.46
237.11	-180.46
237.243	22.54
237.377	-267.46
237.51	-233.46
237.643	925.54
237.776	-155.46
237.909	-143.46
238.043	-16.46
238.176	-230.46
238.309	-92.46
238.442	-341.46
238.575	-73.46
238.709	421.54
238.842	-0.46
238.975	-24.46
239.108	180.54
239.241	-306.46
239.374	-242.46
239.508	-198.46
239.641	197.54
239.774	315.54
239.907	-85.46
240.04	-257.46
240.173	44.54
240.306	236.54
240.44	-158.46
240.573	187.54
240.706	-154.46
240.839	21.54
240.972	-74.46
241.105	-27.46
241.238	15.54
241.371	-52.46
241.504	-66.46
241.638	-113.46
241.771	-36.46
241.904	-166.46
242.037	30.54
242.17	-194.46
242.303	-309.46
242.436	-99.46
242.569	-109.46
242.702	-219.46
242.835	-150.46
242.968	-13.46
243.101	-113.46
243.234	-215.46
243.367	-256.46
243.5	-136.46
243.634	-186.46
243.767	-326.46
243.9	-243.46
244.033	-237.46
244.166	90.54
244.299	-326.46
244.432	-262.46
244.565	24.54
244.698	-306.46
244.831	-206.46
244.964	-272.46
245.097	-195.46
245.23	-9.46
245.363	134.54
245.496	-275.46
245.629	-126.46
245.762	422.54
245.895	-273.46
246.028	-223.46
246.161	434.54
246.294	41.54
246.427	-261.46
246.559	104.54
246.692	-36.46
246.825	-153.46
246.958	-228.46
247.091	-281.46
247.224	-314.46
247.357	-203.46
247.49	107.54
247.623	-170.46
247.756	-252.46
247.889	267.54
248.022	-76.46
248.155	-308.46
248.288	-112.46
248.421	-229.46
248.553	61.54
248.686	-270.46
248.819	68.54
248.952	-261.46
249.085	174.54
249.218	-39.46
249.351	-100.46
249.484	156.54
249.617	-81.46
249.749	-233.46
249.882	-203.46
250.015	-220.46
250.148	-171.46
250.281	-249.46
250.414	-150.46
250.547	-176.46
250.679	154.54
250.812	-93.46
250.945	-25.46
251.078	-261.46
251.211	-158.46
251.344	-283.46
251.476	-169.46
251.609	22.54
251.742	-276.46
251.875	-59.46
252.008	-222.46
252.14	-344.46
252.273	-113.46
252.406	167.54
252.539	-45.46
252.672	-65.46
252.804	118.54
252.937	-273.46
253.07	-51.46
253.203	-132.46
253.335	83.54
253.468	-359.46
253.601	-151.46
253.734	-82.46
253.866	-163.46
253.999	364.54
254.132	-1.46
254.265	-156.46
254.397	-162.46
254.53	-139.46
254.663	19.54
254.796	-218.46
254.928	-304.46
255.061	-230.46
255.194	-47.46
255.327	-316.46
255.459	-42.46
255.592	-288.46
255.725	174.54
255.857	-230.46
255.99	-10.46
256.123	-212.46
256.255	-259.46
256.388	-92.46
256.521	-258.46
256.653	-313.46
256.786	-248.46
256.919	-160.46
257.051	-236.46
257.184	-34.46
257.317	-213.46
257.449	-252.46
257.582	-63.46
257.715	-205.46
257.847	-231.46
257.98	-92.46
258.113	-186.46
258.245	-148.46
258.378	-361.46
258.51	-248.46
258.643	-262.46
258.776	27.54
258.908	-269.46
259.041	-72.46
259.174	-186.46
259.306	-225.46
259.439	-290.46
259.571	-179.46
259.704	-138.46
259.837	152.54
259.969	-203.46
260.102	-241.46
260.234	223.54
260.367	72.54
260.499	-216.46
260.632	-154.46
260.765	-189.46
260.897	-184.46
261.03	-237.46
261.162	-73.46
261.295	-59.46
261.427	91.54
261.56	-80.46
261.692	-252.46
261.825	-78.46
261.957	95.54
262.09	70.54
262.222	7.54
262.355	-230.46
262.487	-149.46
262.62	-264.46
262.752	-85.46
262.885	-140.46
263.017	14.54
263.15	-199.46
263.282	-82.46
263.415	-242.46
263.547	-17.46
263.68	205.54
263.812	-321.46
263.945	-109.46
264.077	-258.46
264.21	192.54
264.342	-290.46
264.475	-238.46
264.607	144.54
264.74	-355.46
264.872	-73.46
265.004	131.54
265.137	59.54
265.269	352.54
265.402	-268.46
265.534	-198.46
265.667	-165.46
265.799	105.54
265.931	-69.46
266.064	21.54
266.196	-116.46
266.329	-183.46
266.461	-176.46
266.593	4.54
266.726	-338.46
266.858	-163.46
266.99	-99.46
267.123	-170.46
267.255	-40.46
267.388	-114.46
267.52	-258.46
267.652	-213.46
267.785	107.54
267.917	-32.46
268.049	-167.46
268.182	388.54
268.314	58.54
268.446	-339.46
268.579	-229.46
268.711	192.54
268.843	-206.46
268.976	-62.46
269.108	388.54
269.24	118.54
269.373	-4.46
269.505	-171.46
269.637	-157.46
269.77	-209.46
269.902	124.54
270.034	-255.46
270.167	0.54
270.299	-13.46
270.431	10.54
270.563	-204.46
270.696	13.54
270.828	-120.46
270.96	-84.46
271.092	-1.46
271.225	-226.46
271.357	-79.46
271.489	-162.46
271.621	-257.46
271.754	506.54
271.886	-204.46
272.018	-169.46
272.15	260.54
272.283	-306.46
272.415	-186.46
272.547	69.54
272.679	86.54
272.811	-95.46
272.944	-126.46
273.076	-326.46
273.208	-44.46
273.34	-124.46
273.473	-139.46
273.605	69.54
273.737	-263.46
273.869	-42.46
274.001	-403.46
274.133	8.54
274.266	-202.46
274.398	1466.54
274.53	12.54
274.662	145.54
274.794	5.54
274.926	63.54
275.059	-185.46
275.191	-2.46
275.323	-262.46
275.455	128.54
275.587	-243.46
275.719	-146.46
275.851	-108.46
275.983	18.54
276.116	4.54
276.248	117.54
276.38	-242.46
276.512	-2.46
276.644	-157.46
276.776	-244.46
276.908	-50.46
277.04	-80.46
277.172	30.54
277.304	-194.46
277.437	-14.46
277.569	-206.46
277.701	-241.46
277.833	-124.46
277.965	-180.46
278.097	13.54
278.229	-217.46
278.361	-158.46
278.493	111.54
278.625	215.54
278.757	15.54
278.889	-261.46
279.021	-171.46
279.153	519.54
279.285	-213.46
279.417	559.54
279.549	69.54
279.681	-127.46
279.813	-216.46
279.945	39.54
280.077	-227.46
280.209	1057.54
280.341	-272.46
280.473	-159.46
280.605	76.54
280.737	-10.46
280.869	200.54
281.001	-80.46
281.133	-354.46
281.265	-21.46
281.397	-150.46
281.529	284.54
281.661	-282.46
281.793	-339.46
281.925	-233.46
282.057	-128.46
282.189	-143.46
282.321	-37.46
282.453	26.54
282.585	-263.46
282.717	121.54
282.849	-83.46
282.98	-176.46
283.112	-219.46
283.244	-17.46
283.376	-266.46
283.508	-353.46
283.64	-262.46
283.772	107.54
283.904	106.54
284.036	-283.46
284.168	128.54
284.299	-52.46
284.431	-29.46
284.563	-115.46
284.695	-162.46
284.827	-233.46
284.959	-5.46
285.091	-242.46
285.222	-277.46
285.354	-208.46
285.486	-103.46
285.618	-252.46
285.75	-105.46
285.882	210.54
286.013	45.54
286.145	-75.46
286.277	5.54
286.409	89.54
286.541	51.54
286.673	-215.46
286.804	-235.46
286.936	-82.46
287.068	-207.46
287.2	-248.46
287.332	315.54
287.463	-315.46
287.595	-70.46
287.727	399.54
287.859	-135.46
287.99	-81.46
288.122	-185.46
288.254	26.54
288.386	-178.46
288.517	-311.46
288.649	-137.46
288.781	-16.46
288.913	-53.46
289.044	-277.46
289.176	192.54
289.308	-183.46
289.44	-347.46
289.571	-191.46
289.703	-284.46
289.835	43.54
289.967	-252.46
290.098	-308.46
290.23	-322.46
290.362	100.54
290.493	-340.46
290.625	-194.46
290.757	-176.46
290.888	-121.46
291.02	-30.46
291.152	-21.46
291.283	7.54
291.415	-142.46
291.547	-270.46
291.678	-252.46
291.81	-41.46
291.942	278.54
292.073	-14.46
292.205	-283.46
292.337	56.54
292.468	467.54
292.6	-167.46
292.732	592.54
292.863	-206.46
292.995	-327.46
293.126	47.54
293.258	162.54
293.39	-253.46
293.521	-252.46
293.653	-324.46
293.785	116.54
293.916	-134.46
294.048	26.54
294.179	-3.46
294.311	-229.46
294.442	54.54
294.574	-259.46
294.706	-121.46
294.837	79.54
294.969	-50.46
295.1	-189.46
295.232	-248.46
295.363	183.54
295.495	-157.46
295.627	-2.46
295.758	142.54
295.89	-371.46
296.021	42.54
296.153	36.54
296.284	-92.46
296.416	-133.46
296.547	-155.46
296.679	-57.46
296.81	-51.46
296.942	-311.46
297.073	-272.46
297.205	-291.46
297.336	-149.46
297.468	-234.46
297.599	-113.46
297.731	-352.46
297.862	-112.46
297.994	-317.46
298.125	-273.46
298.257	-112.46
298.388	22.54
298.52	-18.46
298.651	-70.46
298.782	247.54
298.914	-249.46
299.045	-157.46
299.177	-292.46
299.308	-314.46
299.44	13.54
299.571	-33.46
299.702	-181.46
299.834	-99.46
299.965	-142.46
300.097	-238.46
300.228	-41.46
300.36	-76.46
300.491	-122.46
300.622	-24.46
300.754	-152.46
300.885	-211.46
301.017	-46.46
301.148	-166.46
301.279	-311.46
301.411	19.54
301.542	-67.46
301.673	-75.46
301.805	14.54
301.936	-250.46
302.067	-143.46
302.199	-162.46
302.33	-239.46
302.461	316.54
302.593	1.54
302.724	-17.46
302.855	-280.46
302.987	-131.46
303.118	-274.46
303.249	-330.46
303.381	-141.46
303.512	-205.46
303.643	-222.46
303.775	92.54
303.906	-248.46
304.037	-254.46
304.169	-240.46
304.3	-161.46
304.431	-298.46
304.562	-213.46
304.694	-165.46
304.825	-73.46
304.956	84.54
305.087	-175.46
305.219	2.54
305.35	-43.46
305.481	-225.46
305.612	45.54
305.744	-15.46
305.875	-158.46
306.006	499.54
306.137	-222.46
306.269	-54.46
306.4	47.54
306.531	96.54
306.662	-162.46
306.794	100.54
306.925	-200.46
307.056	-252.46
307.187	-30.46
307.318	-133.46
307.45	-140.46
307.581	-216.46
307.712	-229.46
307.843	-83.46
307.974	-94.46
308.105	118.54
308.237	-50.46
308.368	-304.46
308.499	-154.46
308.63	4.54
308.761	-120.46
308.892	-101.46
309.024	-142.46
309.155	-186.46
309.286	-193.46
309.417	-268.46
309.548	-139.46
309.679	-154.46
309.81	-368.46
309.941	430.54
310.073	-54.46
310.204	-336.46
310.335	-49.46
310.466	-170.46
310.597	-279.46
310.728	-119.46
310.859	348.54
310.99	275.54
311.121	-117.46
311.252	-128.46
311.383	-245.46
311.514	-18.46
311.646	-170.46
311.777	-48.46
311.908	-64.46
312.039	-126.46
312.17	-321.46
312.301	-140.46
312.432	-208.46
312.563	-318.46
312.694	-52.46
312.825	-157.46
312.956	-254.46
313.087	30.54
313.218	56.54
313.349	-170.46
313.48	-346.46
313.611	-137.46
313.742	-121.46
313.873	61.54
314.004	-50.46
314.135	-199.46
314.266	-76.46
314.397	-208.46
314.528	-283.46
314.659	-295.46
314.79	-245.46
314.921	48.54
315.052	20.54
315.183	-249.46
315.314	-315.46
315.445	54.54
315.576	-46.46
315.707	-142.46
315.838	-175.46
315.968	-36.46
316.099	-288.46
316.23	-307.46
316.361	102.54
316.492	-144.46
316.623	46.54
316.754	196.54
316.885	-360.46
317.016	-270.46
317.147	-329.46
317.278	59.54
317.408	-245.46
317.539	-270.46
317.67	-276.46
317.801	-65.46
317.932	-192.46
318.063	-193.46
318.194	-157.46
318.325	0.54
318.455	-381.46
318.586	-135.46
318.717	-34.46
318.848	-333.46
318.979	99.54
319.11	246.54
319.24	6.54
319.371	86.54
319.502	-82.46
319.633	-230.46
319.764	-122.46
319.895	-246.46
320.025	-89.46
320.156	-320.46
320.287	-419.46
320.418	-233.46
320.549	-71.46
320.679	-332.46
320.81	125.54
320.941	-347.46
321.072	-303.46
321.202	12.54
321.333	228.54
321.464	-413.46
321.595	-249.46
321.726	221.54
321.856	-344.46
321.987	-169.46
322.118	-226.46
322.249	-12.46
322.379	-62.46
322.51	8.54
322.641	-69.46
322.771	-306.46
322.902	-77.46
323.033	-114.46
323.164	647.54
323.294	-151.46
323.425	-240.46
323.556	-196.46
323.686	-106.46
323.817	297.54
323.948	-25.46
324.078	-162.46
324.209	132.54
324.34	-186.46
324.47	192.54
324.601	-214.46
324.732	-89.46
324.862	14.54
324.993	-235.46
325.124	-413.46
325.254	-81.46
325.385	-71.46
325.516	492.54
325.646	376.54
325.777	-183.46
325.908	-169.46
326.038	61.54
326.169	-154.46
326.299	-89.46
326.43	90.54
326.561	-131.46
326.691	-140.46
326.822	-258.46
326.952	-189.46
327.083	-84.46
327.214	-226.46
327.344	-96.46
327.475	-23.46
327.605	-66.46
327.736	-163.46
327.867	-276.46
327.997	-122.46
328.128	-33.46
328.258	-360.46
328.389	280.54
328.519	-290.46
328.65	49.54
328.78	-249.46
328.911	-39.46
329.041	95.54
329.172	-325.46
329.303	-215.46
329.433	-162.46
329.564	-267.46
329.694	-269.46
329.825	-216.46
329.955	-30.46
330.086	439.54
330.216	-162.46
330.347	-288.46
330.477	-121.46
330.608	-134.46
330.738	-153.46
330.868	-323.46
330.999	-163.46
331.129	102.54
331.26	-237.46
331.39	-199.46
331.521	158.54
331.651	23.54
331.782	-329.46
331.912	-286.46
332.043	-240.46
332.173	36.54
332.303	-348.46
332.434	100.54
332.564	-11.46
332.695	-229.46
332.825	-327.46
332.956	-188.46
333.086	-85.46
333.216	-257.46
333.347	-46.46
333.477	-445.46
333.608	-105.46
333.738	-19.46
333.868	-136.46
333.999	-78.46
334.129	69.54
334.259	-67.46
334.39	-235.46
334.52	61.54
334.65	-160.46
334.781	127.54
334.911	-210.46
335.042	-261.46
335.172	-42.46
335.302	-123.46
335.433	292.54
335.563	-262.46
335.693	21.54
335.824	234.54
335.954	-373.46
336.084	-8.46
336.214	-42.46
336.345	312.54
336.475	47.54
336.605	-240.46
336.736	322.54
336.866	-144.46
336.996	-160.46
337.126	-273.46
337.257	-103.46
337.387	-376.46
337.517	-226.46
337.648	-346.46
337.778	162.54
337.908	60.54
338.038	26.54
338.169	-201.46
338.299	261.54
338.429	-32.46
338.559	-266.46
338.69	-157.46
338.82	385.54
338.95	-34.46
339.08	-442.46
339.21	-321.46
339.341	-129.46
339.471	35.54
339.601	-92.46
339.731	-31.46
339.861	-165.46
339.992	-125.46
340.122	-136.46
340.252	-208.46
340.382	-199.46
340.512	-87.46
340.642	179.54
340.773	-89.46
340.903	-302.46
341.033	-113.46
341.163	-35.46
341.293	95.54
341.423	-224.46
341.554	-310.46
341.684	-30.46
341.814	-131.46
341.944	-168.46
342.074	-62.46
342.204	-187.46
342.334	178.54
342.464	-286.46
342.595	-175.46
342.725	-291.46
342.855	-65.46
342.985	-165.46
343.115	-276.46
343.245	-379.46
343.375	-8.46
343.505	-132.46
343.635	-11.46
343.765	-222.46
343.895	-373.46
344.025	0.54
344.155	-276.46
344.286	-172.46
344.416	-59.46
344.546	113.54
344.676	-96.46
344.806	164.54
344.936	-56.46
345.066	149.54
345.196	-265.46
345.326	-327.46
345.456	123.54
345.586	-247.46
345.716	-290.46
345.846	45.54
345.976	-359.46
346.106	-107.46
346.236	39.54
346.366	29.54
346.496	-151.46
346.626	-183.46
346.756	-164.46
346.886	-247.46
347.016	-336.46
347.146	-218.46
347.276	-260.46
347.406	-227.46
347.536	-85.46
347.666	90.54
347.795	-251.46
347.925	-171.46
348.055	146.54
348.185	-144.46
348.315	-173.46
348.445	101.54
348.575	-196.46
348.705	-261.46
348.835	-275.46
348.965	-174.46
349.095	-6.46
349.225	257.54
349.354	-247.46
349.484	-171.46
349.614	-188.46
349.744	-242.46
349.874	-277.46
350.004	-325.46
350.134	-292.46
350.264	-329.46
350.393	-307.46
350.523	130.54
350.653	-314.46
350.783	43.54
350.913	153.54
351.043	-238.46
351.173	-178.46
351.302	-13.46
351.432	191.54
351.562	-93.46
351.692	-101.46
351.822	-181.46
351.951	-364.46
352.081	170.54
352.211	-120.46
352.341	167.54
352.471	93.54
352.6	-164.46
352.73	-238.46
352.86	-150.46
352.99	-14.46
353.12	-71.46
353.249	-10.46
353.379	-240.46
353.509	54.54
353.639	-279.46
353.768	-71.46
353.898	-243.46
354.028	-284.46
354.158	-179.46
354.287	-238.46
354.417	-272.46
354.547	-256.46
354.677	-368.46
354.806	-144.46
354.936	-6.46
355.066	-209.46
355.195	-40.46
355.325	-37.46
355.455	-270.46
355.584	174.54
355.714	-236.46
355.844	136.54
355.974	5.54
356.103	-132.46
356.233	-169.46
356.363	28.54
356.492	-278.46
356.622	-276.46
356.752	-7.46
356.881	-358.46
357.011	29.54
357.14	110.54
357.27	-136.46
357.4	74.54
357.529	-159.46
357.659	105.54
357.789	32.54
357.918	-327.46
358.048	-337.46
358.177	-138.46
358.307	-262.46
358.437	-78.46
358.566	-237.46
358.696	45.54
358.825	121.54
358.955	-305.46
359.085	-24.46
359.214	-410.46
359.344	-107.46
359.473	-279.46
359.603	-158.46
359.733	-201.46
359.862	-347.46
359.992	53.54
360.121	-179.46
360.251	12.54
360.38	-348.46
360.51	78.54
360.639	-159.46
360.769	-79.46
360.898	77.54
361.028	46.54
361.157	-89.46
361.287	-58.46
361.416	-261.46
361.546	-146.46
361.675	-153.46
361.805	-192.46
361.934	14.54
362.064	-158.46
362.193	-205.46
362.323	-294.46
362.452	119.54
362.582	-238.46
362.711	-134.46
362.841	30.54
362.97	-26.46
363.1	-271.46
363.229	-280.46
363.359	-133.46
363.488	-237.46
363.617	-139.46
363.747	-130.46
363.876	-369.46
364.006	-65.46
364.135	-131.46
364.265	-155.46
364.394	-156.46
364.523	307.54
364.653	-251.46
364.782	-44.46
364.912	-254.46
365.041	-267.46
365.17	-248.46
365.3	-67.46
365.429	192.54
365.558	-203.46
365.688	-228.46
365.817	-283.46
365.947	-78.46
366.076	-58.46
366.205	-103.46
366.335	-340.46
366.464	-253.46
366.593	100.54
366.723	-153.46
366.852	-87.46
366.981	-67.46
367.111	-264.46
367.24	-174.46
367.369	-151.46
367.499	508.54
367.628	121.54
367.757	-159.46
367.886	-48.46
368.016	115.54
368.145	-97.46
368.274	-75.46
368.404	-293.46
368.533	-91.46
368.662	-6.46
368.791	-189.46
368.921	-386.46
369.05	154.54
369.179	-87.46
369.308	297.54
369.438	-295.46
369.567	-360.46
369.696	-192.46
369.825	-20.46
369.955	-166.46
370.084	-39.46
370.213	-82.46
370.342	-293.46
370.472	-311.46
370.601	410.54
370.73	19.54
370.859	-413.46
370.988	-156.46
371.118	-303.46
371.247	14.54
371.376	111.54
371.505	-87.46
371.634	-43.46
371.763	-117.46
371.893	-258.46
372.022	-183.46
372.151	-297.46
372.28	-315.46
372.409	-380.46
372.538	-179.46
372.667	-83.46
372.797	72.54
372.926	-350.46
373.055	-46.46
373.184	-129.46
373.313	-241.46
373.442	-28.46
373.571	-202.46
373.7	-136.46
373.83	-47.46
373.959	-425.46
374.088	-152.46
374.217	111.54
374.346	-179.46
374.475	-385.46
374.604	-259.46
374.733	263.54
374.862	-111.46
374.991	-271.46
375.12	-69.46
375.249	-43.46
375.378	-242.46
375.508	-315.46
375.637	-317.46
375.766	70.54
375.895	-168.46
376.024	142.54
376.153	-248.46
376.282	-126.46
376.411	-237.46
376.54	-448.46
376.669	-63.46
376.798	-182.46
376.927	-277.46
377.056	64.54
377.185	-69.46
377.314	82.54
377.443	250.54
377.572	-302.46
377.701	-282.46
377.83	160.54
377.959	14.54
378.088	1671.54
378.217	131.54
378.346	-192.46
378.474	-370.46
378.603	-263.46
378.732	-79.46
378.861	-196.46
378.99	-288.46
379.119	-383.46
379.248	-70.46
379.377	-185.46
379.506	-194.46
379.635	106.54
379.764	-79.46
379.893	-245.46
380.022	-314.46
380.15	-93.46
380.279	-337.46
380.408	-235.46
380.537	-161.46
380.666	-35.46
380.795	-64.46
380.924	-177.46
381.053	-266.46
381.181	-88.46
381.31	764.54
381.439	-262.46
381.568	-168.46
381.697	-174.46
381.826	-136.46
381.955	-287.46
382.083	-99.46
382.212	-339.46
382.341	21.54
382.47	-247.46
382.599	-172.46
382.727	202.54
382.856	-72.46
382.985	-15.46
383.114	-187.46
383.243	-249.46
383.371	-118.46
383.5	-255.46
383.629	-272.46
383.758	-262.46
383.887	-444.46
384.015	-94.46
384.144	-298.46
384.273	-81.46
384.402	-44.46
384.53	-247.46
384.659	-275.46
384.788	-279.46
384.917	-245.46
385.045	-101.46
385.174	-136.46
385.303	-387.46
385.432	47.54
385.56	-109.46
385.689	-155.46
385.818	-95.46
385.946	-17.46
386.075	-251.46
386.204	-302.46
386.332	-108.46
386.461	20.54
386.59	15.54
386.718	-323.46
386.847	-171.46
386.976	-181.46
387.104	-347.46
387.233	-293.46
387.362	-70.46
387.49	-106.46
387.619	-300.46
387.748	-140.46
387.876	144.54
388.005	-86.46
388.134	84.54
388.262	-350.46
388.391	-254.46
388.52	-39.46
388.648	-290.46
388.777	61.54
388.905	-248.46
389.034	-174.46
389.163	-245.46
389.291	-136.46
389.42	36.54
389.548	63.54
389.677	-131.46
389.805	-83.46
389.934	-56.46
390.063	-311.46
390.191	-358.46
390.32	-222.46
390.448	-165.46
390.577	-266.46
390.705	-331.46
390.834	-141.46
390.962	-331.46
391.091	-260.46
391.22	93.54
391.348	150.54
391.477	-15.46
391.605	-331.46
391.734	-182.46
391.862	-222.46
391.991	-286.46
392.119	-272.46
392.248	-138.46
392.376	-94.46
392.505	-164.46
392.633	-218.46
392.762	280.54
392.89	-315.46
393.018	17.54
393.147	-197.46
393.275	-361.46
393.404	-296.46
393.532	-194.46
393.661	-106.46
393.789	-94.46
393.918	-130.46
394.046	-113.46
394.174	-111.46
394.303	-319.46
394.431	-236.46
394.56	25.54
394.688	-318.46
394.817	-400.46
394.945	96.54
395.073	32.54
395.202	-104.46
395.33	-193.46
395.459	-155.46
395.587	66.54
395.715	34.54
395.844	-107.46
395.972	-406.46
396.1	119.54
396.229	-291.46
396.357	-75.46
396.485	-229.46
396.614	-278.46
396.742	68.54
396.87	-116.46
396.999	-12.46
397.127	-300.46
397.255	-93.46
397.384	62.54
397.512	-382.46
397.64	-285.46
397.769	-183.46
397.897	-37.46
398.025	-170.46
398.154	-80.46
398.282	210.54
398.41	-109.46
398.538	-95.46
398.667	-241.46
398.795	-234.46
398.923	28.54
399.052	-229.46
399.18	-154.46
399.308	-167.46
399.436	193.54
399.565	-296.46
399.693	-67.46
399.821	-171.46
399.949	-202.46
400.078	286.54
400.206	-329.46
400.334	-317.46
400.462	-160.46
400.59	-336.46
400.719	-193.46
400.847	-292.46
400.975	-22.46
401.103	-256.46
401.231	-58.46
401.36	-94.46
401.488	-26.46
401.616	-201.46
401.744	-189.46
401.872	-236.46
402	-3.46
402.129	-228.46
402.257	-263.46
402.385	-144.46
402.513	-134.46
402.641	-185.46
402.769	-153.46
402.897	-266.46
403.026	-339.46
403.154	-375.46
403.282	-287.46
403.41	-197.46
403.538	156.54
403.666	-329.46
403.794	-190.46
403.922	-56.46
404.05	-66.46
404.179	-130.46
404.307	-74.46
404.435	-315.46
404.563	-301.46
404.691	-360.46
404.819	428.54
404.947	-301.46
405.075	-246.46
405.203	-367.46
405.331	-247.46
405.459	-295.46
405.587	-82.46
405.715	-256.46
405.843	-231.46
405.971	-90.46
406.099	143.54
406.227	-10.46
406.355	-155.46
406.483	-398.46
406.611	-34.46
406.739	-312.46
406.867	-313.46
406.995	-215.46
407.123	-173.46
407.251	-384.46
407.379	-319.46
407.507	-70.46
407.635	-184.46
407.763	-433.46
407.891	-422.46
408.019	-22.46
408.147	43.54
408.275	206.54
408.403	-345.46
408.531	-372.46
408.659	183.54
408.787	-106.46
408.915	-227.46
409.043	-261.46
409.171	40.54
409.299	10.54
409.427	37.54
409.554	-375.46
409.682	276.54
409.81	-105.46
409.938	-229.46
410.066	65.54
410.194	-77.46
410.322	-296.46
410.45	-229.46
410.578	-396.46
410.705	-311.46
410.833	-128.46
410.961	73.54
411.089	342.54
411.217	-167.46
411.345	-169.46
411.473	-287.46
411.6	-93.46
411.728	-211.46
411.856	-350.46
411.984	-292.46
412.112	-59.46
412.239	-51.46
412.367	-204.46
412.495	74.54
412.623	-275.46
412.751	34.54
412.878	-380.46
413.006	-212.46
413.134	58.54
413.262	183.54
413.39	-75.46
413.517	-89.46
413.645	65.54
413.773	-353.46
413.901	178.54
414.028	-217.46
414.156	-148.46
414.284	-276.46
414.412	45.54
414.539	-217.46
414.667	-237.46
414.795	-240.46
414.923	-408.46
415.05	-191.46
415.178	-30.46
415.306	352.54
415.433	-277.46
415.561	59.54
415.689	25.54
415.816	-280.46
415.944	161.54
416.072	-333.46
416.2	-4.46
416.327	240.54
416.455	-270.46
416.583	-243.46
416.71	-242.46
416.838	144.54
416.966	-342.46
417.093	-184.46
417.221	43.54
417.348	-35.46
417.476	-352.46
417.604	-170.46
417.731	-146.46
417.859	22.54
417.987	-70.46
418.114	-270.46
418.242	25.54
418.369	-215.46
418.497	-350.46
418.625	161.54
418.752	-100.46
418.88	-283.46
419.007	142.54
419.135	-77.46
419.263	-243.46
419.39	30.54
419.518	59.54
419.645	19.54
419.773	666.54
419.9	1747.54
420.028	4194.54
420.155	5014.54
420.283	7083.54
420.41	7966.54
420.538	8857.54
420.666	9465.54
420.793	9653.54
420.921	8717.54
421.048	6975.54
421.176	4650.54
421.303	2415.54
421.431	667.54
421.558	-93.46
421.686	212.54
421.813	54.54
421.941	-181.46
422.068	-59.46
422.195	106.54
422.323	69.54
422.45	-326.46
422.578	-81.46
422.705	-243.46
422.833	-164.46
422.96	-261.46
423.088	-35.46
423.215	370.54
423.343	325.54
423.47	-84.46
423.597	229.54
423.725	-124.46
423.852	-148.46
423.98	-61.46
424.107	-384.46
424.234	-164.46
424.362	-226.46
424.489	-258.46
424.617	562.54
424.744	-43.46
424.871	-305.46
424.999	-130.46
425.126	103.54
425.253	-60.46
425.381	-226.46
425.508	-304.46
425.636	-22.46
425.763	-199.46
425.89	-229.46
426.018	-346.46
426.145	-170.46
426.272	-94.46
426.4	45.54
426.527	88.54
426.654	-279.46
426.781	-88.46
426.909	-100.46
427.036	-94.46
427.163	-391.46
427.291	-293.46
427.418	-173.46
427.545	-134.46
427.673	-365.46
427.8	-394.46
427.927	-321.46
428.054	-88.46
428.182	-157.46
428.309	-197.46
428.436	-243.46
428.563	-302.46
428.691	-82.46
428.818	-240.46
428.945	11.54
429.072	-322.46
429.2	-120.46
429.327	-60.46
429.454	59.54
429.581	-139.46
429.708	-374.46
429.836	-253.46
429.963	-215.46
430.09	-236.46
430.217	-241.46
430.344	-311.46
430.472	-324.46
430.599	-26.46
430.726	-248.46
430.853	-136.46
430.98	-24.46
431.107	-290.46
431.235	-146.46
431.362	-58.46
431.489	-125.46
431.616	225.54
431.743	85.54
431.87	-347.46
431.997	-167.46
432.125	-116.46
432.252	-454.46
432.379	-199.46
432.506	-47.46
432.633	-242.46
432.76	-142.46
432.887	95.54
433.014	-193.46
433.141	-285.46
433.268	-45.46
433.395	-267.46
433.523	-173.46
433.65	-167.46
433.777	-176.46
433.904	-179.46
434.031	-371.46
434.158	-89.46
434.285	16.54
434.412	-358.46
434.539	-122.46
434.666	-339.46
434.793	-297.46
434.92	-283.46
435.047	-24.46
435.174	-170.46
435.301	3.54
435.428	257.54
435.555	156.54
435.682	-73.46
435.809	-315.46
435.936	120.54
436.063	-255.46
436.19	125.54
436.317	-293.46
436.444	22.54
436.571	-254.46
436.698	-22.46
436.825	76.54
436.952	-8.46
437.079	-83.46
437.206	2.54
437.333	-307.46
437.46	-196.46
437.587	-125.46
437.714	-332.46
437.84	-185.46
437.967	-354.46
438.094	-347.46
438.221	56.54
438.348	-168.46
438.475	8012.54
438.602	-333.46
438.729	-426.46
438.856	-240.46
438.983	-292.46
439.109	-30.46
439.236	63.54
439.363	-416.46
439.49	-248.46
439.617	-100.46
439.744	-267.46
439.871	414.54
439.997	-266.46
440.124	-70.46
440.251	-85.46
440.378	-262.46
440.505	-199.46
440.632	59.54
440.758	134.54
440.885	269.54
441.012	-271.46
441.139	17.54
441.266	-318.46
441.392	-223.46
441.519	-290.46
441.646	-377.46
441.773	-49.46
441.9	216.54
442.026	-237.46
442.153	-104.46
442.28	-66.46
442.407	-277.46
442.533	21.54
442.66	-44.46
442.787	-136.46
442.914	-281.46
443.04	-222.46
443.167	-146.46
443.294	-133.46
443.421	-114.46
443.547	-315.46
443.674	-161.46
443.801	-68.46
443.927	58.54
444.054	377.54
444.181	55.54
444.307	80.54
444.434	-76.46
444.561	-322.46
444.688	-361.46
444.814	1.54
444.941	-206.46
445.068	-327.46
445.194	211.54
445.321	-273.46
445.447	206.54
445.574	-373.46
445.701	-369.46
445.827	-177.46
445.954	-404.46
446.081	-4.46
446.207	-284.46
446.334	-145.46
446.461	-204.46
446.587	-398.46
446.714	-26.46
446.84	50.54
446.967	-279.46
447.094	-208.46
447.22	74.54
447.347	-167.46
447.473	-274.46
447.6	-64.46
447.726	-387.46
447.853	-121.46
447.98	-132.46
448.106	-93.46
448.233	-129.46
448.359	-242.46
448.486	-71.46
448.612	-227.46
448.739	-39.46
448.865	55.54
448.992	249.54
449.118	-237.46
449.245	-332.46
449.371	-307.46
449.498	-132.46
449.624	-18.46
449.751	-121.46
449.877	-264.46
450.004	-119.46
450.13	-122.46
450.257	-315.46
450.383	-173.46
450.51	-384.46
450.636	-245.46
450.763	-220.46
450.889	-239.46
451.016	-454.46
451.142	-80.46
451.269	-273.46
451.395	231.54
451.521	-171.46
451.648	-283.46
451.774	-127.46
451.901	-409.46
452.027	-160.46
452.154	72.54
452.28	-188.46
452.406	-264.46
452.533	-256.46
452.659	-342.46
452.785	-203.46
452.912	-305.46
453.038	-318.46
453.165	-67.46
453.291	104.54
453.417	144.54
453.544	-328.46
453.67	-234.46
453.796	100.54
453.923	-345.46
454.049	-213.46
454.175	-257.46
454.302	-243.46
454.428	-31.46
454.554	-97.46
454.681	-268.46
454.807	-301.46
454.933	250.54
455.06	-107.46
455.186	-151.46
455.312	108.54
455.439	25.54
455.565	-319.46
455.691	-315.46
455.817	31.54
455.944	94.54
456.07	-168.46
456.196	-27.46
456.322	-407.46
456.449	-373.46
456.575	-159.46
456.701	-255.46
456.827	-289.46
456.954	-360.46
457.08	-296.46
457.206	-423.46
457.332	-148.46
457.459	-386.46
457.585	-294.46
457.711	-262.46
457.837	-31.46
457.963	-75.46
458.09	-310.46
458.216	-332.46
458.342	-169.46
458.468	-206.46
458.594	-145.46
458.721	-133.46
458.847	-116.46
458.973	-351.46
459.099	-233.46
459.225	-239.46
459.351	-215.46
459.477	-82.46
459.604	-325.46
459.73	-248.46
459.856	-334.46
459.982	-129.46
460.108	-425.46
460.234	-440.46
460.36	-195.46
460.486	-22.46
460.613	-335.46
460.739	43.54
460.865	-258.46
460.991	200.54
461.117	143.54
461.243	-301.46
461.369	-339.46
461.495	-234.46
461.621	-141.46
461.747	-107.46
461.873	-21.46
461.999	-300.46
462.125	-197.46
462.252	39.54
462.378	-129.46
462.504	-16.46
462.63	-110.46
462.756	-356.46
462.882	-195.46
463.008	-237.46
463.134	102.54
463.26	-346.46
463.386	-224.46
463.512	-109.46
463.638	-229.46
463.764	-347.46
463.89	-203.46
464.016	47.54
464.142	-56.46
464.268	-324.46
464.394	-228.46
464.52	-354.46
464.645	-118.46
464.771	-4.46
464.897	-240.46
465.023	-261.46
465.149	-125.46
465.275	-372.46
465.401	-318.46
465.527	75.54
465.653	-165.46
465.779	59.54
465.905	-335.46
466.031	-130.46
466.157	-277.46
466.282	-242.46
466.408	-277.46
466.534	-128.46
466.66	-418.46
466.786	-209.46
466.912	-126.46
467.038	-161.46
467.164	-214.46
467.289	-249.46
467.415	-208.46
467.541	-189.46
467.667	-194.46
467.793	-228.46
467.919	-91.46
468.045	149.54
468.17	-281.46
468.296	-171.46
468.422	-224.46
468.548	-7.46
468.674	-388.46
468.799	-272.46
468.925	-218.46
469.051	-327.46
469.177	-399.46
469.303	-423.46
469.428	-11.46
469.554	-261.46
469.68	-274.46
469.806	-58.46
469.931	-158.46
470.057	350.54
470.183	-475.46
470.309	-254.46
470.434	143.54
470.56	-164.46
470.686	-97.46
470.812	-188.46
470.937	-321.46
471.063	-284.46
471.189	-91.46
471.315	77.54
471.44	-141.46
471.566	-195.46
471.692	95.54
471.817	-282.46
471.943	-145.46
472.069	-36.46
472.194	-179.46
472.32	-244.46
472.446	-16.46
472.571	-300.46
472.697	-290.46
472.823	-108.46
472.948	-314.46
473.074	-122.46
473.2	-184.46
473.325	-326.46
473.451	-213.46
473.577	-192.46
473.702	-418.46
473.828	-211.46
473.953	-373.46
474.079	-126.46
474.205	-356.46
474.33	-337.46
474.456	-224.46
474.581	213.54
474.707	-248.46
474.833	-267.46
474.958	-75.46
475.084	33.54
475.209	-247.46
475.335	-300.46
475.46	-112.46
475.586	-193.46
475.712	-61.46
475.837	-217.46
475.963	-210.46
476.088	-394.46
476.214	-277.46
476.339	-236.46
476.465	-272.46
476.59	-366.46
476.716	96.54
476.841	-335.46
476.967	206.54
477.092	-225.46
477.218	-131.46
477.343	-308.46
477.469	228.54
477.594	-284.46
477.72	-339.46
477.845	-124.46
477.971	-240.46
478.096	-130.46
478.222	-212.46
478.347	3265.54
478.472	11.54
478.598	-261.46
478.723	-263.46
478.849	7.54
478.974	-75.46
479.1	-284.46
479.225	-126.46
479.35	-272.46
479.476	-54.46
479.601	-319.46
479.727	40.54
479.852	-273.46
479.977	-130.46
480.103	-175.46
480.228	133.54
480.354	-182.46
480.479	45.54
480.604	-257.46
480.73	-280.46
480.855	-446.46
480.98	33.54
481.106	-366.46
481.231	-389.46
481.356	-303.46
481.482	-435.46
481.607	-305.46
481.732	-496.46
481.858	-226.46
481.983	-339.46
482.108	-258.46
482.234	-393.46
482.359	-258.46
482.484	86.54
482.61	-300.46
482.735	-137.46
482.86	-396.46
482.985	-217.46
483.111	-221.46
483.236	-79.46
483.361	-241.46
483.486	-308.46
483.612	16.54
483.737	-412.46
483.862	-179.46
483.987	-83.46
484.113	-411.46
484.238	-67.46
484.363	-361.46
484.488	-237.46
484.614	-11.46
484.739	-234.46
484.864	57.54
484.989	429.54
485.114	-96.46
485.24	-186.46
485.365	-257.46
485.49	-430.46
485.615	-18.46
485.74	-184.46
485.865	-109.46
485.991	-122.46
486.116	-75.46
486.241	-388.46
486.366	-366.46
486.491	-62.46
486.616	-272.46
486.742	-234.46
486.867	-199.46
486.992	-356.46
487.117	-329.46
487.242	-325.46
487.367	-476.46
487.492	-239.46
487.617	-33.46
487.742	-151.46
487.868	-294.46
487.993	-49.46
488.118	-96.46
488.243	-90.46
488.368	-276.46
488.493	-416.46
488.618	-253.46
488.743	-241.46
488.868	-334.46
488.993	-192.46
489.118	19.54
489.243	-156.46
489.368	-273.46
489.493	1.54
489.618	-151.46
489.743	-320.46
489.868	-162.46
489.993	-280.46
490.118	-410.46
490.243	342.54
490.368	-254.46
490.493	-37.46
490.618	12.54
490.743	-433.46
490.868	-131.46
490.993	-151.46
491.118	-5.46
491.243	-323.46
491.368	-123.46
491.493	-27.46
491.618	-162.46
491.743	-217.46
491.868	-268.46
491.993	-202.46
492.118	-283.46
492.243	-110.46
492.368	-82.46
492.493	-269.46
492.618	114.54
492.743	-245.46
492.867	47.54
492.992	-159.46
493.117	-41.46
493.242	-279.46
493.367	-177.46
493.492	47.54
493.617	-249.46
493.742	70.54
493.867	-245.46
493.991	-393.46
494.116	-137.46
494.241	-144.46
494.366	-217.46
494.491	-70.46
494.616	68.54
494.74	-272.46
494.865	-390.46
494.99	-236.46
495.115	-220.46
495.24	-125.46
495.365	-254.46
495.489	-217.46
495.614	-94.46
495.739	-185.46
495.864	-250.46
495.989	-383.46
496.113	-10.46
496.238	-102.46
496.363	-255.46
496.488	-334.46
496.612	1.54
496.737	-263.46
496.862	-184.46
496.987	-247.46
497.111	-337.46
497.236	-303.46
497.361	-289.46
497.486	101.54
497.61	-6.46
497.735	-215.46
497.86	-76.46
497.984	-81.46
498.109	-413.46
498.234	-296.46
498.359	-227.46
498.483	-165.46
498.608	-140.46
498.733	-255.46
498.857	-352.46
498.982	-161.46
499.107	-385.46
499.231	-149.46
499.356	-230.46
499.481	105.54
499.605	-511.46
499.73	-366.46
499.855	23.54
499.979	-319.46
500.104	-202.46
500.228	148.54
500.353	-242.46
500.478	-344.46
500.602	-134.46
500.727	54.54
500.852	-65.46
500.976	-451.46
501.101	-215.46
501.225	134.54
501.35	-339.46
501.474	-323.46
501.599	-21.46
501.724	-209.46
501.848	-158.46
501.973	111.54
502.097	-358.46
502.222	-413.46
502.346	-49.46
502.471	-117.46
502.595	-268.46
502.72	-362.46
502.844	-331.46
502.969	-200.46
503.094	147.54
503.218	-377.46
503.343	-277.46
503.467	-307.46
503.592	-235.46
503.716	-243.46
503.841	-109.46
503.965	205.54
504.089	-201.46
504.214	-340.46
504.338	-241.46
504.463	8.54
504.587	-140.46
504.712	-140.46
504.836	-169.46
504.961	264.54
505.085	141.54
505.21	-295.46
505.334	-287.46
505.458	202.54
505.583	-370.46
505.707	-98.46
505.832	-234.46
505.956	-145.46
506.08	-316.46
506.205	-274.46
506.329	89.54
506.454	-363.46
506.578	-162.46
506.702	-336.46
506.827	124.54
506.951	-79.46
507.076	-176.46
507.2	-362.46
507.324	-52.46
507.449	44.54
507.573	-202.46
507.697	-255.46
507.822	-155.46
507.946	-201.46
508.07	-391.46
508.195	-206.46
508.319	-209.46
508.443	-140.46
508.567	-412.46
508.692	-349.46
508.816	-325.46
508.94	-183.46
509.065	-458.46
509.189	-99.46
509.313	-67.46
509.437	10.54
509.562	-245.46
509.686	-136.46
509.81	-208.46
509.935	-115.46
510.059	29.54
510.183	-326.46
510.307	-378.46
510.431	-33.46
510.556	-202.46
510.68	-266.46
510.804	-402.46
510.928	-173.46
511.053	-384.46
511.177	-391.46
511.301	-167.46
511.425	-261.46
511.549	-162.46
511.674	-149.46
511.798	-176.46
511.922	-83.46
512.046	150.54
512.17	-221.46
512.294	-363.46
512.419	-109.46
512.543	-56.46
512.667	-221.46
512.791	-324.46
512.915	-113.46
513.039	-221.46
513.163	-66.46
513.288	140.54
513.412	-245.46
513.536	48.54
513.66	-306.46
513.784	-206.46
513.908	-117.46
514.032	-143.46
514.156	-3.46
514.28	-45.46
514.404	-193.46
514.528	-205.46
514.653	-69.46
514.777	-4.46
514.901	-95.46
515.025	80.54
515.149	-223.46
515.273	-90.46
515.397	-214.46
515.521	-208.46
515.645	-226.46
515.769	-305.46
515.893	-276.46
516.017	-264.46
516.141	-416.46
516.265	-226.46
516.389	-258.46
516.513	-166.46
516.637	-267.46
516.761	-480.46
516.885	-297.46
517.009	-192.46
517.133	-103.46
517.257	-219.46
517.381	-3.46
517.505	-11.46
517.629	61.54
517.753	-226.46
517.877	-371.46
518.001	-237.46
518.125	-236.46
518.248	-58.46
518.372	-160.46
518.496	-389.46
518.62	-117.46
518.744	-176.46
518.868	-140.46
518.992	-145.46
519.116	-322.46
519.24	405.54
519.364	34.54
519.488	-152.46
519.611	-434.46
519.735	-186.46
519.859	-226.46
519.983	-0.46
520.107	-258.46
520.231	26.54
520.355	-146.46
520.478	-260.46
520.602	-342.46
520.726	64.54
520.85	-225.46
520.974	-0.46
521.098	-247.46
521.221	-347.46
521.345	38.54
521.469	-286.46
521.593	-187.46
521.717	34.54
521.84	-171.46
521.964	-308.46
522.088	-254.46
522.212	-211.46
522.335	-386.46
522.459	-271.46
522.583	206.54
522.707	-350.46
522.83	-414.46
522.954	-307.46
523.078	-289.46
523.202	-22.46
523.325	-247.46
523.449	-139.46
523.573	-169.46
523.697	-305.46
523.82	-204.46
523.944	-222.46
524.068	-196.46
524.191	-216.46
524.315	-395.46
524.439	-156.46
524.562	-43.46
524.686	-245.46
524.81	-318.46
524.933	-249.46
525.057	-234.46
525.181	-95.46
525.304	-363.46
525.428	113.54
525.552	-375.46
525.675	-173.46
525.799	-293.46
525.923	-142.46
526.046	-88.46
526.17	-414.46
526.293	-332.46
526.417	-156.46
526.541	-17.46
526.664	-243.46
526.788	-237.46
526.911	-69.46
527.035	-341.46
527.159	-231.46
527.282	-265.46
527.406	-289.46
527.529	-64.46
527.653	-387.46
527.776	-120.46
527.9	-248.46
528.024	-295.46
528.147	-262.46
528.271	22.54
528.394	-8.46
528.518	31.54
528.641	-352.46
528.765	-124.46
528.888	-179.46
529.012	-108.46
529.135	-246.46
529.259	66.54
529.382	-202.46
529.506	-317.46
529.629	-84.46
529.753	-357.46
529.876	129.54
530	33.54
530.123	-164.46
530.247	-342.46
530.37	-264.46
530.493	-146.46
530.617	-312.46
530.74	3.54
530.864	-57.46
530.987	-409.46
531.111	-102.46
531.234	-308.46
531.357	9.54
531.481	21.54
531.604	23.54
531.728	-391.46
531.851	-114.46
531.974	-84.46
532.098	-224.46
532.221	-315.46
532.345	-206.46
532.468	-346.46
532.591	128.54
532.715	-209.46
532.838	-245.46
532.961	-205.46
533.085	-292.46
533.208	-121.46
533.331	-385.46
533.455	-19.46
533.578	-219.46
533.701	-129.46
533.825	36.54
533.948	-285.46
534.071	-250.46
534.195	-50.46
534.318	-346.46
534.441	-293.46
534.564	-68.46
534.688	-250.46
534.811	-42.46
534.934	-205.46
535.058	-114.46
535.181	47.54
535.304	-29.46
535.427	-282.46
535.551	-407.46
535.674	-205.46
535.797	-96.46
535.92	-48.46
536.043	-361.46
536.167	-360.46
536.29	-107.46
536.413	-168.46
536.536	-334.46
536.66	-256.46
536.783	-76.46
536.906	-132.46
537.029	-298.46
537.152	-255.46
537.275	-189.46
537.399	123.54
537.522	-445.46
537.645	-217.46
537.768	-247.46
537.891	-135.46
538.014	-195.46
538.138	-278.46
538.261	-240.46
538.384	-153.46
538.507	-362.46
538.63	-257.46
538.753	112.54
538.876	-128.46
538.999	-350.46
539.123	-74.46
539.246	196.54
539.369	240.54
539.492	-287.46
539.615	-359.46
539.738	169.54
539.861	-252.46
539.984	-185.46
540.107	-125.46
540.23	-262.46
540.353	-331.46
540.476	-472.46
540.599	-101.46
540.722	-356.46
540.846	-121.46
540.969	-423.46
541.092	-149.46
541.215	-345.46
541.338	-113.46
541.461	-323.46
541.584	-194.46
541.707	-185.46
541.83	-298.46
541.953	-146.46
542.076	-98.46
542.199	-164.46
542.322	62.54
542.445	126.54
542.567	-248.46
542.69	-142.46
542.813	-264.46
542.936	-69.46
543.059	-146.46
543.182	222.54
543.305	69.54
543.428	-129.46
543.551	-223.46
543.674	108.54
543.797	-54.46
543.92	-244.46
544.043	257.54
544.166	-301.46
544.288	-226.46
544.411	-89.46
544.534	-352.46
544.657	-125.46
544.78	-227.46
544.903	-67.46
545.026	-177.46
545.149	-336.46
545.271	-355.46
545.394	-262.46
545.517	-390.46
545.64	373.54
545.763	-195.46
545.886	-286.46
546.008	-114.46
546.131	-2.46
546.254	-202.46
546.377	-381.46
546.5	-32.46
546.623	-62.46
546.745	-341.46
546.868	-215.46
546.991	24.54
547.114	-172.46
547.236	-194.46
547.359	-336.46
547.482	-117.46
547.605	-275.46
547.728	-252.46
547.85	-312.46
547.973	-283.46
548.096	-208.46
548.219	-90.46
548.341	-214.46
548.464	-371.46
548.587	-155.46
548.709	-208.46
548.832	-157.46
548.955	251.54
549.078	23.54
549.2	-302.46
549.323	-240.46
549.446	151.54
549.568	-154.46
549.691	-79.46
549.814	-37.46
549.936	-266.46
550.059	-210.46
550.182	-332.46
550.304	-409.46
550.427	-157.46
550.55	-254.46
550.672	-298.46
550.795	278.54
550.917	-306.46
551.04	-178.46
551.163	-94.46
551.285	63.54
551.408	13.54
551.531	324.54
551.653	-344.46
551.776	-149.46
551.898	-108.46
552.021	-93.46
552.143	-210.46
552.266	-196.46
552.389	-199.46
552.511	-353.46
552.634	-369.46
552.756	-331.46
552.879	224.54
553.001	7.54
553.124	-403.46
553.246	-286.46
553.369	19.54
553.492	-207.46
553.614	43.54
553.737	-462.46
553.859	-62.46
553.982	4.54
554.104	-137.46
554.227	-319.46
554.349	-195.46
554.472	-189.46
554.594	-459.46
554.716	20.54
554.839	-55.46
554.961	-116.46
555.084	-331.46
555.206	-139.46
555.329	-367.46
555.451	-356.46
555.574	-91.46
555.696	-308.46
555.819	-152.46
555.941	-167.46
556.063	-53.46
556.186	-180.46
556.308	-96.46
556.431	217.54
556.553	-33.46
556.675	-274.46
556.798	-208.46
556.92	-47.46
557.043	-294.46
557.165	-363.46
557.287	24.54
557.41	-184.46
557.532	-136.46
557.654	-241.46
557.777	17.54
557.899	-171.46
558.021	-219.46
558.144	57.54
558.266	67.54
558.388	254.54
558.511	-255.46
558.633	-200.46
558.755	-271.46
558.878	-293.46
559	-14.46
559.122	-408.46
559.244	-267.46
559.367	-199.46
559.489	16.54
559.611	131.54
559.734	-173.46
559.856	-136.46
559.978	-144.46
560.1	-182.46
560.223	-181.46
560.345	96.54
560.467	-360.46
560.589	-222.46
560.712	-223.46
560.834	206.54
560.956	-360.46
561.078	-214.46
561.2	-107.46
561.323	83.54
561.445	-386.46
561.567	-253.46
561.689	-312.46
561.811	-59.46
561.934	-179.46
562.056	-199.46
562.178	-53.46
562.3	-225.46
562.422	-56.46
562.544	-140.46
562.666	18.54
562.789	-109.46
562.911	-156.46
563.033	-37.46
563.155	7.54
563.277	-252.46
563.399	-457.46
563.521	-233.46
563.643	-305.46
563.766	-175.46
563.888	29.54
564.01	-143.46
564.132	-247.46
564.254	-369.46
564.376	65.54
564.498	-157.46
564.62	116.54
564.742	-140.46
564.864	-387.46
564.986	-140.46
565.108	264.54
565.23	-246.46
565.352	-47.46
565.474	-102.46
565.597	131.54
565.719	115.54
565.841	-357.46
565.963	-107.46
566.085	-153.46
566.207	-180.46
566.329	15.54
566.451	24.54
566.573	-228.46
566.695	-193.46
566.817	163.54
566.938	-337.46
567.06	-173.46
567.182	-120.46
567.304	-184.46
567.426	-367.46
567.548	49.54
567.67	-81.46
567.792	-180.46
567.914	-300.46
568.036	-158.46
568.158	-133.46
568.28	-314.46
568.402	-50.46
568.524	-185.46
568.646	-289.46
568.767	-228.46
568.889	15.54
569.011	-170.46
569.133	-261.46
569.255	-390.46
569.377	-330.46
569.499	-129.46
569.621	-247.46
569.742	197.54
569.864	15.54
569.986	294.54
570.108	-3.46
570.23	-335.46
570.352	73.54
570.473	-123.46
570.595	-174.46
570.717	-341.46
570.839	-138.46
570.961	-16.46
571.082	-174.46
571.204	-292.46
571.326	-274.46
571.448	-27.46
571.57	10.54
571.691	-130.46
571.813	-141.46
571.935	46.54
572.057	-143.46
572.178	-308.46
572.3	82.54
572.422	114.54
572.544	172.54
572.665	-253.46
572.787	-277.46
572.909	127.54
573.031	-49.46
573.152	-346.46
573.274	-26.46
573.396	1.54
573.517	-17.46
573.639	-432.46
573.761	-290.46
573.882	-122.46
574.004	-7.46
574.126	-284.46
574.247	-26.46
574.369	-16.46
574.491	-157.46
574.612	-317.46
574.734	-166.46
574.856	-148.46
574.977	-11.46
575.099	-125.46
575.221	-162.46
575.342	-166.46
575.464	-106.46
575.585	-51.46
575.707	-306.46
575.829	100.54
575.95	60.54
576.072	-234.46
576.193	-326.46
576.315	-203.46
576.437	-162.46
576.558	-191.46
576.68	-195.46
576.801	218.54
576.923	-297.46
577.044	45.54
577.166	-416.46
577.287	-130.46
577.409	-185.46
577.531	-180.46
577.652	-53.46
577.774	-393.46
577.895	-158.46
578.017	-304.46
578.138	-282.46
578.26	-188.46
578.381	-73.46
578.503	-291.46
578.624	-258.46
578.746	-350.46
578.867	-179.46
578.988	-85.46
579.11	103.54
579.231	-89.46
579.353	-229.46
579.474	-183.46
579.596	-223.46
579.717	2.54
579.839	-107.46
579.96	-452.46
580.081	-75.46
580.203	-177.46
580.324	-122.46
580.446	-57.46
580.567	-152.46
580.688	206.54
580.81	-298.46
580.931	-235.46
581.053	-371.46
581.174	-115.46
581.295	-250.46
581.417	-59.46
581.538	-46.46
581.659	-51.46
581.781	-138.46
581.902	-263.46
582.024	-323.46
582.145	-330.46
582.266	-292.46
582.388	-184.46
582.509	-338.46
582.63	-145.46
582.751	-250.46
582.873	-225.46
582.994	-264.46
583.115	-186.46
583.237	-86.46
583.358	-285.46
583.479	-432.46
583.6	22.54
583.722	-176.46
583.843	-317.46
583.964	77.54
584.086	-229.46
584.207	-46.46
584.328	-351.46
584.449	-90.46
584.57	-106.46
584.692	-140.46
584.813	815.54
584.934	-148.46
585.055	-303.46
585.177	9.54
585.298	-123.46
585.419	-349.46
585.54	144.54
585.661	-39.46
585.783	-101.46
585.904	-289.46
586.025	103.54
586.146	-320.46
586.267	-250.46
586.388	-186.46
586.51	274.54
586.631	-290.46
586.752	-359.46
586.873	-226.46
586.994	-353.46
587.115	-317.46
587.236	-269.46
587.357	-392.46
587.479	-303.46
587.6	35.54
587.721	-231.46
587.842	-283.46
587.963	179.54
588.084	89.54
588.205	-332.46
588.326	-196.46
588.447	-136.46
588.568	-176.46
588.689	-122.46
588.81	-83.46
588.931	-180.46
589.052	-231.46
589.174	-289.46
589.295	-74.46
589.416	-103.46
589.537	34.54
589.658	-233.46
589.779	-379.46
589.9	58.54
590.021	-241.46
590.142	-244.46
590.263	-384.46
590.384	-152.46
590.505	200.54
590.626	-299.46
590.747	-145.46
590.867	-72.46
590.988	-45.46
591.109	-198.46
591.23	41.54
591.351	6.54
591.472	-136.46
591.593	-243.46
591.714	-134.46
591.835	-216.46
591.956	-204.46
592.077	-409.46
592.198	-187.46
592.319	-84.46
592.44	-22.46
592.56	-275.46
592.681	-381.46
592.802	-80.46
592.923	-175.46
593.044	-280.46
593.165	-338.46
593.286	-65.46
593.407	-265.46
593.527	9.54
593.648	-315.46
593.769	-68.46
593.89	79.54
594.011	-173.46
594.132	-272.46
594.252	-103.46
594.373	-318.46
594.494	-387.46
594.615	-203.46
594.736	-216.46
594.856	17.54
594.977	-340.46
595.098	-94.46
595.219	-305.46
595.34	-114.46
595.46	-353.46
595.581	175.54
595.702	-177.46
595.823	-318.46
595.943	-142.46
596.064	-205.46
596.185	86.54
596.306	-381.46
596.426	-297.46
596.547	-331.46
596.668	-87.46
596.788	-101.46
596.909	-152.46
597.03	-118.46
597.151	-126.46
597.271	-243.46
597.392	-189.46
597.513	-81.46
597.633	-34.46
597.754	-106.46
597.875	-199.46
597.995	117.54
598.116	-120.46
598.237	-197.46
598.357	-305.46
598.478	-291.46
598.599	186.54
598.719	-174.46
598.84	-378.46
598.96	-292.46
599.081	-158.46
599.202	-186.46
599.322	-307.46
599.443	-316.46
599.563	-69.46
599.684	30.54
599.805	-246.46
599.925	-371.46
600.046	220.54
600.166	-180.46
600.287	-106.46
600.407	-166.46
600.528	59.54
600.649	-59.46
600.769	-157.46
600.89	-333.46
601.01	-19.46
601.131	-240.46
601.251	125.54
601.372	-131.46
601.492	-225.46
601.613	-283.46
601.733	-261.46
601.854	190.54
601.974	315.54
602.095	140.54
602.215	-356.46
602.336	-354.46
602.456	208.54
602.577	-244.46
602.697	683.54
602.817	-40.46
602.938	-112.46
603.058	-70.46
603.179	-354.46
603.299	-307.46
603.42	-355.46
603.54	-54.46
603.66	-357.46
603.781	-117.46
603.901	-242.46
604.022	99.54
604.142	-166.46
604.262	-162.46
604.383	-239.46
604.503	100.54
604.624	-285.46
604.744	-110.46
604.864	-34.46
604.985	-204.46
605.105	-130.46
605.225	-165.46
605.346	-140.46
605.466	-2.46
605.586	195.54
605.707	275.54
605.827	-331.46
605.947	-200.46
606.068	-213.46
606.188	-215.46
606.308	-242.46
606.429	49.54
606.549	-237.46
606.669	-351.46
606.789	-266.46
606.91	-45.46
607.03	-306.46
607.15	-225.46
607.27	-68.46
607.391	4.54
607.511	-282.46
607.631	-305.46
607.751	176.54
607.872	-22.46
607.992	-329.46
608.112	30.54
608.232	-255.46
608.353	-298.46
608.473	-249.46
608.593	109.54
608.713	318.54
608.833	-138.46
608.954	-298.46
609.074	-228.46
609.194	-321.46
609.314	208.54
609.434	-69.46
609.554	-141.46
609.675	-59.46
609.795	-248.46
609.915	-317.46
610.035	299.54
610.155	-173.46
610.275	-211.46
610.395	-34.46
610.516	-326.46
610.636	-113.46
610.756	-69.46
610.876	-23.46
610.996	-315.46
611.116	178.54
611.236	-353.46
611.356	-263.46
611.476	-151.46
611.596	-109.46
611.716	132.54
611.836	-316.46
611.957	-354.46
612.077	-127.46
612.197	-58.46
612.317	-315.46
612.437	28.54
612.557	39.54
612.677	-171.46
612.797	-89.46
612.917	-338.46
613.037	-42.46
613.157	-121.46
613.277	-125.46
613.397	118.54
613.517	155.54
613.637	-199.46
613.757	-160.46
613.877	-253.46
613.997	-90.46
614.117	-278.46
614.237	-209.46
614.356	-122.46
614.476	76.54
614.596	22.54
614.716	-203.46
614.836	-190.46
614.956	-51.46
615.076	-98.46
615.196	-324.46
615.316	-132.46
615.436	-21.46
615.556	139.54
615.676	187.54
615.795	-79.46
615.915	-106.46
616.035	-227.46
616.155	-166.46
616.275	-292.46
616.395	-226.46
616.515	1.54
616.635	-407.46
616.754	-436.46
616.874	-12.46
616.994	-129.46
617.114	235.54
617.234	12.54
617.354	49.54
617.473	344.54
617.593	-234.46
617.713	-141.46
617.833	-55.46
617.953	-93.46
618.072	-455.46
618.192	-272.46
618.312	100.54
618.432	69.54
618.551	-296.46
618.671	-262.46
618.791	-16.46
618.911	-99.46
619.03	-199.46
619.15	-133.46
619.27	-147.46
619.39	-212.46
619.509	-193.46
619.629	-197.46
619.749	-276.46
619.868	-99.46
619.988	-389.46
620.108	-278.46
620.228	745.54
620.347	-82.46
620.467	-276.46
620.587	-285.46
620.706	87.54
620.826	-253.46
620.946	-307.46
621.065	-22.46
621.185	299.54
621.305	-209.46
621.424	-211.46
621.544	-424.46
621.663	-32.46
621.783	-204.46
621.903	187.54
622.022	-326.46
622.142	-132.46
622.261	168.54
622.381	-120.46
622.501	-53.46
622.62	-169.46
622.74	-107.46
622.859	-213.46
622.979	60.54
623.099	-201.46
623.218	-20.46
623.338	138.54
623.457	-80.46
623.577	-219.46
623.696	-74.46
623.816	-393.46
623.935	-282.46
624.055	-263.46
624.174	-155.46
624.294	-166.46
624.413	-375.46
624.533	-47.46
624.652	89.54
624.772	-283.46
624.891	-376.46
625.011	10.54
625.13	-188.46
625.25	-369.46
625.369	-232.46
625.489	-196.46
625.608	-261.46
625.728	-168.46
625.847	-141.46
625.966	-277.46
626.086	-255.46
626.205	-344.46
626.325	-130.46
626.444	-89.46
626.564	179.54
626.683	0.54
626.802	-7.46
626.922	87.54
627.041	-24.46
627.161	-171.46
627.28	-1.46
627.399	19.54
627.519	-66.46
627.638	-405.46
627.757	-291.46
627.877	-171.46
627.996	-155.46
628.115	-47.46
628.235	-25.46
628.354	-306.46
628.473	-113.46
628.593	91.54
628.712	-121.46
628.831	-78.46
628.951	-327.46
629.07	69.54
629.189	-110.46
629.309	-156.46
629.428	193.54
629.547	-347.46
629.666	-64.46
629.786	-113.46
629.905	-298.46
630.024	-25.46
630.143	-60.46
630.263	-154.46
630.382	260.54
630.501	-219.46
630.62	-251.46
630.74	-315.46
630.859	63.54
630.978	-173.46
631.097	-336.46
631.216	-272.46
631.336	164.54
631.455	-298.46
631.574	-229.46
631.693	-38.46
631.812	-193.46
631.932	-414.46
632.051	85.54
632.17	241.54
632.289	32.54
632.408	-252.46
632.527	-166.46
632.646	-104.46
632.766	-224.46
632.885	177.54
633.004	-379.46
633.123	-147.46
633.242	-236.46
633.361	624.54
633.48	-273.46
633.599	-240.46
633.718	59.54
633.838	-109.46
633.957	-376.46
634.076	-70.46
634.195	-169.46
634.314	-33.46
634.433	-33.46
634.552	-210.46
634.671	-78.46
634.79	167.54
634.909	49.54
635.028	-48.46
635.147	-13.46
635.266	-274.46
635.385	-132.46
635.504	-298.46
635.623	-43.46
635.742	-370.46
635.861	-334.46
635.98	-118.46
636.099	-195.46
636.218	-170.46
636.337	-142.46
636.456	273.54
636.575	36.54
636.694	-143.46
636.813	-361.46
636.932	-311.46
637.051	-72.46
637.17	-409.46
637.289	-136.46
637.408	-313.46
637.526	-114.46
637.645	-442.46
637.764	-375.46
637.883	-181.46
638.002	56.54
638.121	302.54
638.24	-281.46
638.359	44.54
638.478	-170.46
638.597	-310.46
638.715	383.54
638.834	-167.46
638.953	38.54
639.072	-350.46
639.191	-392.46
639.31	22.54
639.428	-110.46
639.547	-106.46
639.666	-21.46
639.785	-32.46
639.904	-73.46
640.023	-356.46
640.141	-211.46
640.26	-144.46
640.379	14.54
640.498	-404.46
640.616	-132.46
640.735	-129.46
640.854	61.54
640.973	-363.46
641.092	-50.46
641.21	-36.46
641.329	-162.46
641.448	-2.46
641.567	183.54
641.685	-132.46
641.804	-153.46
641.923	-163.46
642.041	-277.46
642.16	-182.46
642.279	116.54
642.398	-229.46
642.516	-297.46
642.635	151.54
642.754	-163.46
642.872	17.54
642.991	19.54
643.11	-210.46
643.228	-281.46
643.347	-376.46
643.466	-393.46
643.584	27.54
643.703	234.54
643.821	-137.46
643.94	-120.46
644.059	-49.46
644.177	49.54
644.296	-325.46
644.415	-266.46
644.533	-104.46
644.652	22.54
644.77	-374.46
644.889	-325.46
645.008	35.54
645.126	-226.46
645.245	-16.46
645.363	27.54
645.482	-60.46
645.6	-142.46
645.719	-179.46
645.837	-225.46
645.956	-64.46
646.074	-295.46
646.193	-298.46
646.312	13.54
646.43	135.54
646.549	242.54
646.667	-450.46
646.786	-322.46
646.904	18.54
647.023	-18.46
647.141	-347.46
647.26	-38.46
647.378	459.54
647.496	-157.46
647.615	-89.46
647.733	-132.46
647.852	215.54
647.97	-191.46
648.089	27.54
648.207	-60.46
648.326	98.54
648.444	-159.46
648.562	-174.46
648.681	-95.46
648.799	-141.46
648.918	-72.46
649.036	-162.46
649.154	-270.46
649.273	97.54
649.391	-153.46
649.51	-273.46
649.628	-370.46
649.746	214.54
649.865	-220.46
649.983	-337.46
650.101	-147.46
650.22	-85.46
650.338	-212.46
650.456	-215.46
650.575	-222.46
650.693	-287.46
650.811	-7.46
650.93	-375.46
651.048	1095.54
651.166	330.54
651.285	-144.46
651.403	-52.46
651.521	-130.46
651.639	-103.46
651.758	-101.46
651.876	196.54
651.994	-318.46
652.112	82.54
652.231	-68.46
652.349	-290.46
652.467	-471.46
652.585	-120.46
652.704	22.54
652.822	-406.46
652.94	-381.46
653.058	-40.46
653.176	-215.46
653.295	-157.46
653.413	-8.46
653.531	-222.46
653.649	-130.46
653.767	-322.46
653.886	-340.46
654.004	-233.46
654.122	144.54
654.24	-373.46
654.358	-333.46
654.476	-131.46
654.594	212.54
654.713	-225.46
654.831	-395.46
654.949	-163.46
655.067	-44.46
655.185	-365.46
655.303	-262.46
655.421	-179.46
655.539	114.54
655.658	-187.46
655.776	-233.46
655.894	-2.46
656.012	177.54
656.13	-405.46
656.248	-227.46
656.366	-246.46
656.484	-150.46
656.602	-324.46
656.72	-309.46
656.838	-59.46
656.956	-161.46
657.074	-58.46
657.192	-114.46
657.31	-240.46
657.428	-146.46
657.546	-94.46
657.664	-111.46
657.782	-131.46
657.9	82.54
658.018	-229.46
658.136	-156.46
658.254	52.54
658.372	119.54
658.49	-346.46
658.608	-329.46
658.726	-8.46
658.844	-7.46
658.962	-269.46
659.08	-357.46
659.198	-15.46
659.316	-83.46
