Data from scan_26012024_HR4D30811__0__16-12-24-591.txt Node

Date: Fri Jan 26 16:12:24 MST 2024
User: Brock
Spectrometer: HR4D3081
Trigger mode: 4
Integration Time (sec): 2.000000E1
Scans to average: 1
Electric dark correction enabled: true
Nonlinearity correction enabled: false
Boxcar width: 0
XAxis mode: Wavelengths
Number of Pixels in Spectrum: 3648
>>>>>Begin Spectral Data<<<<<
197.25	-2196.77
197.385	-2196.77
197.519	-2196.77
197.653	-2202.77
197.787	455.23
197.922	-289.77
198.056	261.23
198.19	-11.77
198.324	20.23
198.459	-478.77
198.593	1134.23
198.727	-129.77
198.861	-303.77
198.996	532.23
199.13	-717.77
199.264	-559.77
199.398	-85.77
199.533	629.23
199.667	336.23
199.801	-196.77
199.935	-618.77
200.07	-123.77
200.204	2.23
200.338	-434.77
200.472	-435.77
200.606	-794.77
200.741	-435.77
200.875	-430.77
201.009	-282.77
201.143	-626.77
201.277	229.23
201.412	70.23
201.546	623.23
201.68	425.23
201.814	-500.77
201.948	87.23
202.082	-204.77
202.217	-772.77
202.351	-286.77
202.485	-171.77
202.619	-585.77
202.753	-824.77
202.887	659.23
203.021	272.23
203.156	612.23
203.29	116.23
203.424	-187.77
203.558	-518.77
203.692	-254.77
203.826	-735.77
203.96	-380.77
204.094	408.23
204.229	-450.77
204.363	-559.77
204.497	-780.77
204.631	-684.77
204.765	-459.77
204.899	-255.77
205.033	-360.77
205.167	-616.77
205.301	-5.77
205.435	-820.77
205.569	-211.77
205.704	-272.77
205.838	-804.77
205.972	-448.77
206.106	1225.23
206.24	-403.77
206.374	-545.77
206.508	-8.77
206.642	17.23
206.776	-347.77
206.91	364.23
207.044	-22.77
207.178	259.23
207.312	-153.77
207.446	-297.77
207.58	-393.77
207.714	-750.77
207.848	368.23
207.982	-908.77
208.116	134.23
208.25	-572.77
208.384	-489.77
208.518	-477.77
208.652	-628.77
208.786	-691.77
208.92	496.23
209.054	-93.77
209.188	-662.77
209.322	-326.77
209.456	-358.77
209.59	-649.77
209.724	-380.77
209.858	-130.77
209.992	-276.77
210.126	-446.77
210.26	-373.77
210.394	-184.77
210.528	-111.77
210.662	-460.77
210.796	-413.77
210.929	354.23
211.063	-75.77
211.197	-103.77
211.331	-76.77
211.465	-510.77
211.599	103.23
211.733	229.23
211.867	-434.77
212.001	-491.77
212.135	-284.77
212.269	-501.77
212.402	-482.77
212.536	182.23
212.67	-342.77
212.804	-585.77
212.938	112.23
213.072	-543.77
213.206	-333.77
213.34	-437.77
213.473	-391.77
213.607	326.23
213.741	-765.77
213.875	-653.77
214.009	-600.77
214.143	-448.77
214.277	-415.77
214.41	-533.77
214.544	591.23
214.678	270.23
214.812	700.23
214.946	-669.77
215.08	-361.77
215.213	-559.77
215.347	-387.77
215.481	-266.77
215.615	-788.77
215.749	51.23
215.882	-636.77
216.016	-679.77
216.15	155.23
216.284	390.23
216.418	-104.77
216.551	170.23
216.685	-2.77
216.819	-671.77
216.953	-448.77
217.086	680.23
217.22	-416.77
217.354	-100.77
217.488	113.23
217.621	277.23
217.755	-48.77
217.889	-329.77
218.023	-270.77
218.156	196.23
218.29	155.23
218.424	358.23
218.558	-623.77
218.691	-873.77
218.825	-319.77
218.959	1059.23
219.092	-385.77
219.226	-761.77
219.36	-741.77
219.494	-190.77
219.627	-497.77
219.761	-488.77
219.895	-191.77
220.028	-745.77
220.162	1040.23
220.296	308.23
220.429	10.23
220.563	-209.77
220.697	-170.77
220.83	-492.77
220.964	-405.77
221.098	-694.77
221.231	-657.77
221.365	256.23
221.499	-577.77
221.632	-584.77
221.766	0.23
221.9	-230.77
222.033	247.23
222.167	217.23
222.3	-507.77
222.434	-4.77
222.568	529.23
222.701	-428.77
222.835	-440.77
222.968	-553.77
223.102	-601.77
223.236	-656.77
223.369	-55.77
223.503	118.23
223.636	-607.77
223.77	-447.77
223.904	-90.77
224.037	-436.77
224.171	160.23
224.304	9.23
224.438	-546.77
224.571	-240.77
224.705	440.23
224.839	-119.77
224.972	-885.77
225.106	-4.77
225.239	-252.77
225.373	147.23
225.506	-171.77
225.64	199.23
225.773	-334.77
225.907	-436.77
226.04	-838.77
226.174	-275.77
226.307	-182.77
226.441	-395.77
226.575	-174.77
226.708	433.23
226.842	-159.77
226.975	-443.77
227.109	-579.77
227.242	74.23
227.375	125.23
227.509	-170.77
227.642	-473.77
227.776	158.23
227.909	63.23
228.043	-568.77
228.176	401.23
228.31	-613.77
228.443	745.23
228.577	-196.77
228.71	-436.77
228.844	-18.77
228.977	-602.77
229.111	-478.77
229.244	-66.77
229.377	-725.77
229.511	-157.77
229.644	-501.77
229.778	-464.77
229.911	-469.77
230.044	-324.77
230.178	-55.77
230.311	-614.77
230.445	145.23
230.578	-516.77
230.711	-282.77
230.845	737.23
230.978	141.23
231.112	-554.77
231.245	-685.77
231.378	-561.77
231.512	141.23
231.645	-976.77
231.779	-796.77
231.912	-160.77
232.045	138.23
232.179	-418.77
232.312	-370.77
232.445	171.23
232.579	636.23
232.712	336.23
232.845	-565.77
232.979	-883.77
233.112	130.23
233.245	-337.77
233.379	-792.77
233.512	-106.77
233.645	-664.77
233.779	-634.77
233.912	3.23
234.045	-430.77
234.179	138.23
234.312	-416.77
234.445	1.23
234.578	-179.77
234.712	8.23
234.845	117.23
234.978	-450.77
235.112	-263.77
235.245	295.23
235.378	-556.77
235.511	-23.77
235.645	-1.77
235.778	6.23
235.911	-462.77
236.044	-777.77
236.178	654.23
236.311	-605.77
236.444	-690.77
236.577	-628.77
236.711	-305.77
236.844	-885.77
236.977	-386.77
237.11	-451.77
237.243	-68.77
237.377	-674.77
237.51	-579.77
237.643	2285.23
237.776	-474.77
237.909	-295.77
238.043	-146.77
238.176	-651.77
238.309	-192.77
238.442	-766.77
238.575	-268.77
238.709	936.23
238.842	-41.77
238.975	-57.77
239.108	364.23
239.241	-768.77
239.374	-713.77
239.508	-518.77
239.641	486.23
239.774	836.23
239.907	-214.77
240.04	-686.77
240.173	65.23
240.306	562.23
240.44	-471.77
240.573	455.23
240.706	-440.77
240.839	-57.77
240.972	-194.77
241.105	-127.77
241.238	103.23
241.371	-194.77
241.504	-253.77
241.638	-285.77
241.771	-180.77
241.904	-453.77
242.037	96.23
242.17	-511.77
242.303	-760.77
242.436	-227.77
242.569	-365.77
242.702	-499.77
242.835	-419.77
242.968	-79.77
243.101	-382.77
243.234	-551.77
243.367	-688.77
243.5	-326.77
243.634	-463.77
243.767	-707.77
243.9	-574.77
244.033	-685.77
244.166	103.23
244.299	-766.77
244.432	-610.77
244.565	-91.77
244.698	-847.77
244.831	-465.77
244.964	-731.77
245.097	-521.77
245.23	-106.77
245.363	468.23
245.496	-706.77
245.629	-422.77
245.762	1026.23
245.895	-652.77
246.028	-500.77
246.161	1058.23
246.294	53.23
246.427	-588.77
246.559	198.23
246.692	-182.77
246.825	-410.77
246.958	-536.77
247.091	-756.77
247.224	-767.77
247.357	-610.77
247.49	270.23
247.623	-550.77
247.756	-619.77
247.889	707.23
248.022	-242.77
248.155	-699.77
248.288	-292.77
248.421	-623.77
248.553	195.23
248.686	-621.77
248.819	200.23
248.952	-635.77
249.085	453.23
249.218	-163.77
249.351	-281.77
249.484	246.23
249.617	-194.77
249.749	-638.77
249.882	-712.77
250.015	-624.77
250.148	-393.77
250.281	-745.77
250.414	-484.77
250.547	-386.77
250.679	401.23
250.812	-305.77
250.945	-46.77
251.078	-649.77
251.211	-413.77
251.344	-696.77
251.476	-489.77
251.609	-153.77
251.742	-666.77
251.875	-188.77
252.008	-545.77
252.14	-895.77
252.273	-297.77
252.406	453.23
252.539	-53.77
252.672	-296.77
252.804	382.23
252.937	-693.77
253.07	-66.77
253.203	-410.77
253.335	156.23
253.468	-913.77
253.601	-393.77
253.734	-296.77
253.866	-442.77
253.999	932.23
254.132	-23.77
254.265	-428.77
254.397	-446.77
254.53	-362.77
254.663	-103.77
254.796	-560.77
254.928	-658.77
255.061	-549.77
255.194	-218.77
255.327	-806.77
255.459	-33.77
255.592	-760.77
255.725	320.23
255.857	-570.77
255.99	-50.77
256.123	-659.77
256.255	-675.77
256.388	-229.77
256.521	-606.77
256.653	-817.77
256.786	-689.77
256.919	-434.77
257.051	-723.77
257.184	-58.77
257.317	-591.77
257.449	-678.77
257.582	-251.77
257.715	-498.77
257.847	-631.77
257.98	-284.77
258.113	-515.77
258.245	-394.77
258.378	-932.77
258.51	-745.77
258.643	-570.77
258.776	74.23
258.908	-639.77
259.041	-206.77
259.174	-500.77
259.306	-535.77
259.439	-718.77
259.571	-576.77
259.704	-340.77
259.837	359.23
259.969	-542.77
260.102	-604.77
260.234	521.23
260.367	100.23
260.499	-553.77
260.632	-397.77
260.765	-494.77
260.897	-542.77
261.03	-617.77
261.162	-229.77
261.295	-143.77
261.427	155.23
261.56	-174.77
261.692	-656.77
261.825	-161.77
261.957	184.23
262.09	261.23
262.222	8.23
262.355	-654.77
262.487	-310.77
262.62	-658.77
262.752	-349.77
262.885	-365.77
263.017	-27.77
263.15	-481.77
263.282	-226.77
263.415	-620.77
263.547	-192.77
263.68	408.23
263.812	-804.77
263.945	-295.77
264.077	-667.77
264.21	378.23
264.342	-749.77
264.475	-574.77
264.607	253.23
264.74	-989.77
264.872	-183.77
265.004	346.23
265.137	145.23
265.269	843.23
265.402	-673.77
265.534	-466.77
265.667	-496.77
265.799	241.23
265.931	-273.77
266.064	-1.77
266.196	-445.77
266.329	-446.77
266.461	-497.77
266.593	34.23
266.726	-842.77
266.858	-389.77
266.99	-358.77
267.123	-457.77
267.255	-137.77
267.388	-377.77
267.52	-609.77
267.652	-478.77
267.785	258.23
267.917	-56.77
268.049	-425.77
268.182	930.23
268.314	156.23
268.446	-856.77
268.579	-668.77
268.711	435.23
268.843	-517.77
268.976	-211.77
269.108	854.23
269.24	328.23
269.373	-59.77
269.505	-408.77
269.637	-385.77
269.77	-539.77
269.902	386.23
270.034	-658.77
270.167	71.23
270.299	-79.77
270.431	-35.77
270.563	-538.77
270.696	-50.77
270.828	-347.77
270.96	-252.77
271.092	-102.77
271.225	-647.77
271.357	-275.77
271.489	-484.77
271.621	-618.77
271.754	1233.23
271.886	-644.77
272.018	-536.77
272.15	683.23
272.283	-753.77
272.415	-438.77
272.547	95.23
272.679	171.23
272.811	-306.77
272.944	-318.77
273.076	-894.77
273.208	-174.77
273.34	-252.77
273.473	-388.77
273.605	131.23
273.737	-774.77
273.869	-179.77
274.001	-944.77
274.133	-17.77
274.266	-570.77
274.398	3595.23
274.53	94.23
274.662	274.23
274.794	65.23
274.926	58.23
275.059	-519.77
275.191	-18.77
275.323	-662.77
275.455	177.23
275.587	-552.77
275.719	-405.77
275.851	-331.77
275.983	3.23
276.116	-42.77
276.248	219.23
276.38	-693.77
276.512	-135.77
276.644	-342.77
276.776	-724.77
276.908	-184.77
277.04	-425.77
277.172	71.23
277.304	-496.77
277.437	-85.77
277.569	-598.77
277.701	-645.77
277.833	-292.77
277.965	-415.77
278.097	29.23
278.229	-455.77
278.361	-457.77
278.493	200.23
278.625	387.23
278.757	63.23
278.889	-633.77
279.021	-472.77
279.153	1235.23
279.285	-639.77
279.417	1434.23
279.549	140.23
279.681	-348.77
279.813	-490.77
279.945	92.23
280.077	-564.77
280.209	2501.23
280.341	-712.77
280.473	-416.77
280.605	180.23
280.737	-136.77
280.869	462.23
281.001	-228.77
281.133	-853.77
281.265	-221.77
281.397	-329.77
281.529	596.23
281.661	-646.77
281.793	-887.77
281.925	-548.77
282.057	-381.77
282.189	-369.77
282.321	-187.77
282.453	25.23
282.585	-655.77
282.717	252.23
282.849	-255.77
282.98	-395.77
283.112	-600.77
283.244	-120.77
283.376	-648.77
283.508	-895.77
283.64	-650.77
283.772	200.23
283.904	164.23
284.036	-732.77
284.168	277.23
284.299	-123.77
284.431	-153.77
284.563	-352.77
284.695	-378.77
284.827	-665.77
284.959	-63.77
285.091	-587.77
285.222	-718.77
285.354	-545.77
285.486	-349.77
285.618	-698.77
285.75	-375.77
285.882	376.23
286.013	104.23
286.145	-179.77
286.277	-31.77
286.409	87.23
286.541	54.23
286.673	-518.77
286.804	-581.77
286.936	-112.77
287.068	-562.77
287.2	-567.77
287.332	602.23
287.463	-833.77
287.595	-202.77
287.727	1005.23
287.859	-369.77
287.99	-701.77
288.122	-564.77
288.254	21.23
288.386	-508.77
288.517	-766.77
288.649	-461.77
288.781	-119.77
288.913	-112.77
289.044	-824.77
289.176	334.23
289.308	-490.77
289.44	-867.77
289.571	-548.77
289.703	-629.77
289.835	100.23
289.967	-703.77
290.098	-716.77
290.23	-813.77
290.362	258.23
290.493	-827.77
290.625	-501.77
290.757	-548.77
290.888	-424.77
291.02	-134.77
291.152	-212.77
291.283	-112.77
291.415	-326.77
291.547	-728.77
291.678	-638.77
291.81	-114.77
291.942	579.23
292.073	-109.77
292.205	-692.77
292.337	5.23
292.468	1240.23
292.6	-502.77
292.732	1350.23
292.863	-572.77
292.995	-792.77
293.126	135.23
293.258	278.23
293.39	-743.77
293.521	-659.77
293.653	-835.77
293.785	134.23
293.916	-436.77
294.048	76.23
294.179	-21.77
294.311	-691.77
294.442	100.23
294.574	-737.77
294.706	-345.77
294.837	237.23
294.969	-232.77
295.1	-455.77
295.232	-693.77
295.363	404.23
295.495	-613.77
295.627	-6.77
295.758	342.23
295.89	-883.77
296.021	79.23
296.153	118.23
296.284	-250.77
296.416	-403.77
296.547	-443.77
296.679	-122.77
296.81	-193.77
296.942	-861.77
297.073	-711.77
297.205	-676.77
297.336	-424.77
297.468	-660.77
297.599	-283.77
297.731	-831.77
297.862	-334.77
297.994	-837.77
298.125	-682.77
298.257	-359.77
298.388	-21.77
298.52	-94.77
298.651	-308.77
298.782	632.23
298.914	-517.77
299.045	-395.77
299.177	-839.77
299.308	-808.77
299.44	-52.77
299.571	-227.77
299.702	-386.77
299.834	-176.77
299.965	-385.77
300.097	-599.77
300.228	-242.77
300.36	-203.77
300.491	-265.77
300.622	-76.77
300.754	-353.77
300.885	-500.77
301.017	-279.77
301.148	-553.77
301.279	-847.77
301.411	69.23
301.542	-151.77
301.673	-185.77
301.805	18.23
301.936	-561.77
302.067	-375.77
302.199	-513.77
302.33	-695.77
302.461	755.23
302.593	-56.77
302.724	-18.77
302.855	-795.77
302.987	-320.77
303.118	-769.77
303.249	-920.77
303.381	-376.77
303.512	-506.77
303.643	-521.77
303.775	217.23
303.906	-639.77
304.037	-637.77
304.169	-565.77
304.3	-427.77
304.431	-744.77
304.562	-516.77
304.694	-377.77
304.825	-171.77
304.956	240.23
305.087	-480.77
305.219	18.23
305.35	-201.77
305.481	-514.77
305.612	72.23
305.744	-14.77
305.875	-455.77
306.006	1165.23
306.137	-527.77
306.269	-138.77
306.4	-11.77
306.531	148.23
306.662	-349.77
306.794	157.23
306.925	-495.77
307.056	-674.77
307.187	-71.77
307.318	-352.77
307.45	-455.77
307.581	-689.77
307.712	-618.77
307.843	-290.77
307.974	-226.77
308.105	192.23
308.237	279.23
308.368	-784.77
308.499	-460.77
308.63	-69.77
308.761	-299.77
308.892	-299.77
309.024	-471.77
309.155	-585.77
309.286	-460.77
309.417	-701.77
309.548	-442.77
309.679	-369.77
309.81	-952.77
309.941	1015.23
310.073	-78.77
310.204	-932.77
310.335	-37.77
310.466	-471.77
310.597	-775.77
310.728	-434.77
310.859	753.23
310.99	731.23
311.121	-282.77
311.252	-347.77
311.383	-619.77
311.514	-42.77
311.646	-443.77
311.777	-131.77
311.908	-164.77
312.039	-317.77
312.17	-923.77
312.301	-475.77
312.432	-593.77
312.563	-883.77
312.694	-185.77
312.825	-386.77
312.956	-525.77
313.087	31.23
313.218	36.23
313.349	-409.77
313.48	-890.77
313.611	-312.77
313.742	-262.77
313.873	64.23
314.004	-67.77
314.135	-469.77
314.266	-250.77
314.397	-509.77
314.528	-673.77
314.659	-701.77
314.79	-645.77
314.921	14.23
315.052	99.23
315.183	-621.77
315.314	-819.77
315.445	16.23
315.576	-149.77
315.707	-396.77
315.838	-438.77
315.968	-248.77
316.099	-729.77
316.23	-833.77
316.361	137.23
316.492	-423.77
316.623	161.23
316.754	324.23
316.885	-924.77
317.016	-886.77
317.147	-892.77
317.278	87.23
317.408	-595.77
317.539	-746.77
317.67	-677.77
317.801	-138.77
317.932	-498.77
318.063	-565.77
318.194	-328.77
318.325	-165.77
318.455	-961.77
318.586	-497.77
318.717	-168.77
318.848	-785.77
318.979	40.23
319.11	545.23
319.24	115.23
319.371	99.23
319.502	-273.77
319.633	-613.77
319.764	-227.77
319.895	-638.77
320.025	-234.77
320.156	-863.77
320.287	-978.77
320.418	-565.77
320.549	-189.77
320.679	-898.77
320.81	286.23
320.941	-830.77
321.072	-780.77
321.202	-62.77
321.333	589.23
321.464	-958.77
321.595	-610.77
321.726	377.23
321.856	-871.77
321.987	-400.77
322.118	-581.77
322.249	10.23
322.379	-103.77
322.51	-33.77
322.641	-241.77
322.771	-865.77
322.902	-288.77
323.033	-299.77
323.164	1668.23
323.294	-523.77
323.425	-508.77
323.556	-574.77
323.686	-382.77
323.817	665.23
323.948	-70.77
324.078	-441.77
324.209	356.23
324.34	-511.77
324.47	458.23
324.601	-544.77
324.732	-245.77
324.862	5.23
324.993	-592.77
325.124	-1090.77
325.254	-305.77
325.385	-185.77
325.516	1238.23
325.646	837.23
325.777	-429.77
325.908	-511.77
326.038	140.23
326.169	-471.77
326.299	-144.77
326.43	278.23
326.561	-326.77
326.691	-304.77
326.822	-739.77
326.952	-601.77
327.083	-258.77
327.214	-698.77
327.344	-242.77
327.475	-58.77
327.605	-165.77
327.736	-473.77
327.867	-783.77
327.997	-455.77
328.128	-136.77
328.258	-786.77
328.389	544.23
328.519	-801.77
328.65	25.23
328.78	-586.77
328.911	-122.77
329.041	149.23
329.172	-796.77
329.303	-586.77
329.433	-426.77
329.564	-729.77
329.694	-683.77
329.825	-565.77
329.955	-120.77
330.086	935.23
330.216	-341.77
330.347	-692.77
330.477	-324.77
330.608	-386.77
330.738	-295.77
330.868	-734.77
330.999	-473.77
331.129	286.23
331.26	-541.77
331.39	-512.77
331.521	310.23
331.651	-85.77
331.782	-842.77
331.912	-745.77
332.043	-729.77
332.173	-12.77
332.303	-819.77
332.434	174.23
332.564	-93.77
332.695	-577.77
332.825	-871.77
332.956	-587.77
333.086	-307.77
333.216	-687.77
333.347	-119.77
333.477	-994.77
333.608	-266.77
333.738	-23.77
333.868	-307.77
333.999	-209.77
334.129	186.23
334.259	-270.77
334.39	-569.77
334.52	124.23
334.65	-452.77
334.781	226.23
334.911	-484.77
335.042	-664.77
335.172	-93.77
335.302	-357.77
335.433	662.23
335.563	-644.77
335.693	-126.77
335.824	457.23
335.954	-903.77
336.084	-109.77
336.214	-199.77
336.345	735.23
336.475	208.23
336.605	-695.77
336.736	710.23
336.866	-372.77
336.996	-438.77
337.126	-767.77
337.257	-319.77
337.387	-905.77
337.517	-506.77
337.648	-872.77
337.778	262.23
337.908	32.23
338.038	105.23
338.169	-421.77
338.299	475.23
338.429	-200.77
338.559	-550.77
338.69	-472.77
338.82	916.23
338.95	-173.77
339.08	-1029.77
339.21	-839.77
339.341	-305.77
339.471	45.23
339.601	-268.77
339.731	-196.77
339.861	-458.77
339.992	-432.77
340.122	-280.77
340.252	-528.77
340.382	-535.77
340.512	-319.77
340.642	434.23
340.773	-243.77
340.903	-753.77
341.033	-328.77
341.163	-55.77
341.293	159.23
341.423	-584.77
341.554	-797.77
341.684	-100.77
341.814	-421.77
341.944	-440.77
342.074	-275.77
342.204	-464.77
342.334	465.23
342.464	-793.77
342.595	-388.77
342.725	-750.77
342.855	-142.77
342.985	-506.77
343.115	-666.77
343.245	-882.77
343.375	-56.77
343.505	-371.77
343.635	3.23
343.765	-541.77
343.895	-937.77
344.025	7.23
344.155	-857.77
344.286	-518.77
344.416	-291.77
344.546	295.23
344.676	-305.77
344.806	360.23
344.936	-145.77
345.066	438.23
345.196	-774.77
345.326	-847.77
345.456	252.23
345.586	-609.77
345.716	-734.77
345.846	148.23
345.976	-904.77
346.106	-303.77
346.236	-69.77
346.366	50.23
346.496	-368.77
346.626	-388.77
346.756	-576.77
346.886	-546.77
347.016	-816.77
347.146	-585.77
347.276	-731.77
347.406	-448.77
347.536	-132.77
347.666	108.23
347.795	-712.77
347.925	-388.77
348.055	211.23
348.185	-502.77
348.315	-577.77
348.445	245.23
348.575	-449.77
348.705	-699.77
348.835	-716.77
348.965	-396.77
349.095	-15.77
349.225	588.23
349.354	-669.77
349.484	-414.77
349.614	-427.77
349.744	-674.77
349.874	-753.77
350.004	-870.77
350.134	-748.77
350.264	-828.77
350.393	-820.77
350.523	312.23
350.653	-813.77
350.783	78.23
350.913	348.23
351.043	-514.77
351.173	-483.77
351.302	-147.77
351.432	430.23
351.562	-224.77
351.692	-245.77
351.822	-434.77
351.951	-947.77
352.081	457.23
352.211	-259.77
352.341	411.23
352.471	297.23
352.6	-306.77
352.73	-610.77
352.86	-365.77
352.99	-120.77
353.12	-215.77
353.249	-118.77
353.379	-689.77
353.509	165.23
353.639	-713.77
353.768	-267.77
353.898	-550.77
354.028	-770.77
354.158	-459.77
354.287	-533.77
354.417	-733.77
354.547	-667.77
354.677	-857.77
354.806	-452.77
354.936	-72.77
355.066	-596.77
355.195	-58.77
355.325	-179.77
355.455	-673.77
355.584	388.23
355.714	-554.77
355.844	264.23
355.974	-29.77
356.103	-388.77
356.233	-349.77
356.363	-4.77
356.492	-683.77
356.622	-753.77
356.752	-49.77
356.881	-917.77
357.011	79.23
357.14	233.23
357.27	-306.77
357.4	71.23
357.529	-504.77
357.659	225.23
357.789	39.23
357.918	-753.77
358.048	-826.77
358.177	-441.77
358.307	-651.77
358.437	-261.77
358.566	-575.77
358.696	100.23
358.825	295.23
358.955	-762.77
359.085	-71.77
359.214	-1046.77
359.344	-266.77
359.473	-663.77
359.603	-498.77
359.733	-591.77
359.862	-822.77
359.992	119.23
360.121	-519.77
360.251	-58.77
360.38	-844.77
360.51	158.23
360.639	-462.77
360.769	-229.77
360.898	253.23
361.028	150.23
361.157	-299.77
361.287	-164.77
361.416	-583.77
361.546	-463.77
361.675	-397.77
361.805	-524.77
361.934	82.23
362.064	-400.77
362.193	-548.77
362.323	-720.77
362.452	306.23
362.582	-696.77
362.711	-303.77
362.841	65.23
362.97	15.23
363.1	-669.77
363.229	-797.77
363.359	-432.77
363.488	-523.77
363.617	-306.77
363.747	-303.77
363.876	-1033.77
364.006	-45.77
364.135	-304.77
364.265	-453.77
364.394	-440.77
364.523	602.23
364.653	-645.77
364.782	-181.77
364.912	-688.77
365.041	-673.77
365.17	-715.77
365.3	-14.77
365.429	-165.77
365.558	-425.77
365.688	-700.77
365.817	-778.77
365.947	-215.77
366.076	-168.77
366.205	-243.77
366.335	-883.77
366.464	-752.77
366.593	266.23
366.723	-414.77
366.852	-507.77
366.981	-237.77
367.111	-738.77
367.24	-442.77
367.369	-397.77
367.499	1271.23
367.628	273.23
367.757	-448.77
367.886	-119.77
368.016	114.23
368.145	-321.77
368.274	-209.77
368.404	-753.77
368.533	-328.77
368.662	10.23
368.791	-519.77
368.921	-987.77
369.05	279.23
369.179	-235.77
369.308	742.23
369.438	-858.77
369.567	-951.77
369.696	-363.77
369.825	-71.77
369.955	-527.77
370.084	-124.77
370.213	-232.77
370.342	-782.77
370.472	-782.77
370.601	982.23
370.73	55.23
370.859	-1028.77
370.988	-492.77
371.118	-817.77
371.247	15.23
371.376	201.23
371.505	-234.77
371.634	-167.77
371.763	-251.77
371.893	-681.77
372.022	-453.77
372.151	-702.77
372.28	-846.77
372.409	-1009.77
372.538	-514.77
372.667	-242.77
372.797	236.23
372.926	-895.77
373.055	-234.77
373.184	-343.77
373.313	-622.77
373.442	-165.77
373.571	-658.77
373.7	-408.77
373.83	-134.77
373.959	-1073.77
374.088	-439.77
374.217	156.23
374.346	-423.77
374.475	-954.77
374.604	-630.77
374.733	506.23
374.862	-251.77
374.991	-702.77
375.12	-244.77
375.249	-202.77
375.378	-629.77
375.508	-757.77
375.637	-763.77
375.766	22.23
375.895	-450.77
376.024	280.23
376.153	-650.77
376.282	-384.77
376.411	-552.77
376.54	-1036.77
376.669	-230.77
376.798	-483.77
376.927	-739.77
377.056	181.23
377.185	-326.77
377.314	71.23
377.443	688.23
377.572	-765.77
377.701	-608.77
377.83	265.23
377.959	-32.77
378.088	4084.23
378.217	234.23
378.346	-526.77
378.474	-851.77
378.603	-759.77
378.732	-128.77
378.861	-522.77
378.99	-576.77
379.119	-951.77
379.248	-221.77
379.377	-412.77
379.506	-413.77
379.635	151.23
379.764	-293.77
379.893	-734.77
380.022	-793.77
380.15	-348.77
380.279	-937.77
380.408	-702.77
380.537	-372.77
380.666	-106.77
380.795	-210.77
380.924	-407.77
381.053	-581.77
381.181	-267.77
381.31	1852.23
381.439	-749.77
381.568	-391.77
381.697	-438.77
381.826	-399.77
381.955	-762.77
382.083	-315.77
382.212	-819.77
382.341	-68.77
382.47	-721.77
382.599	-307.77
382.727	646.23
382.856	-165.77
382.985	-142.77
383.114	-492.77
383.243	-609.77
383.371	-337.77
383.5	-674.77
383.629	-702.77
383.758	-661.77
383.887	-1028.77
384.015	-251.77
384.144	-665.77
384.273	-321.77
384.402	-149.77
384.53	-650.77
384.659	-631.77
384.788	-682.77
384.917	-654.77
385.045	-344.77
385.174	-344.77
385.303	-962.77
385.432	47.23
385.56	-341.77
385.689	-431.77
385.818	-195.77
385.946	-166.77
386.075	-672.77
386.204	-726.77
386.332	-343.77
386.461	-31.77
386.59	-12.77
386.718	-797.77
386.847	-413.77
386.976	-511.77
387.104	-954.77
387.233	-762.77
387.362	-243.77
387.49	-221.77
387.619	-747.77
387.748	-324.77
387.876	288.23
388.005	-300.77
388.134	91.23
388.262	-763.77
388.391	-615.77
388.52	-98.77
388.648	-831.77
388.777	149.23
388.905	-593.77
389.034	-477.77
389.163	-753.77
389.291	-341.77
389.42	19.23
389.548	144.23
389.677	-302.77
389.805	-311.77
389.934	-13.77
390.063	-644.77
390.191	-902.77
390.32	-606.77
390.448	-393.77
390.577	-742.77
390.705	-845.77
390.834	-405.77
390.962	-818.77
391.091	-777.77
391.22	88.23
391.348	292.23
391.477	-91.77
391.605	-925.77
391.734	-658.77
391.862	-562.77
391.991	-800.77
392.119	-755.77
392.248	-458.77
392.376	-170.77
392.505	-383.77
392.633	-642.77
392.762	621.23
392.89	-740.77
393.018	91.23
393.147	-590.77
393.275	-943.77
393.404	-728.77
393.532	-548.77
393.661	-344.77
393.789	-203.77
393.918	-210.77
394.046	-386.77
394.174	-331.77
394.303	-904.77
394.431	-589.77
394.56	24.23
394.688	-945.77
394.817	-1033.77
394.945	253.23
395.073	87.23
395.202	-180.77
395.33	-496.77
395.459	-331.77
395.587	125.23
395.715	146.23
395.844	-406.77
395.972	-985.77
396.1	203.23
396.229	-694.77
396.357	-234.77
396.485	-515.77
396.614	-726.77
396.742	106.23
396.87	-349.77
396.999	-92.77
397.127	-795.77
397.255	-253.77
397.384	-3.77
397.512	-889.77
397.64	-676.77
397.769	-445.77
397.897	-217.77
398.025	-351.77
398.154	-210.77
398.282	379.23
398.41	-256.77
398.538	-256.77
398.667	-615.77
398.795	-595.77
398.923	-44.77
399.052	-441.77
399.18	-473.77
399.308	-438.77
399.436	359.23
399.565	-757.77
399.693	-160.77
399.821	-406.77
399.949	-578.77
400.078	776.23
400.206	-808.77
400.334	-833.77
400.462	-535.77
400.59	-828.77
400.719	-585.77
400.847	-661.77
400.975	-147.77
401.103	-654.77
401.231	-313.77
401.36	-310.77
401.488	-74.77
401.616	-420.77
401.744	-434.77
401.872	-675.77
402	-116.77
402.129	-547.77
402.257	-684.77
402.385	-463.77
402.513	-422.77
402.641	-432.77
402.769	-401.77
402.897	-645.77
403.026	-987.77
403.154	-928.77
403.282	-752.77
403.41	-464.77
403.538	358.23
403.666	-856.77
403.794	-419.77
403.922	-302.77
404.05	-218.77
404.179	-394.77
404.307	-278.77
404.435	-706.77
404.563	-781.77
404.691	-902.77
404.819	1053.23
404.947	-752.77
405.075	-692.77
405.203	-850.77
405.331	-698.77
405.459	-798.77
405.587	-245.77
405.715	-597.77
405.843	-607.77
405.971	-287.77
406.099	-139.77
406.227	-98.77
406.355	-483.77
406.483	-940.77
406.611	-260.77
406.739	-740.77
406.867	-862.77
406.995	-513.77
407.123	-456.77
407.251	-965.77
407.379	-835.77
407.507	-164.77
407.635	-468.77
407.763	-1075.77
407.891	-1101.77
408.019	20.23
408.147	-79.77
408.275	437.23
408.403	-888.77
408.531	-881.77
408.659	414.23
408.787	-286.77
408.915	-564.77
409.043	-575.77
409.171	83.23
409.299	10.23
409.427	145.23
409.554	-932.77
409.682	729.23
409.81	-264.77
409.938	-628.77
410.066	97.23
410.194	-225.77
410.322	-745.77
410.45	-520.77
410.578	-965.77
410.705	-799.77
410.833	-295.77
410.961	168.23
411.089	747.23
411.217	-376.77
411.345	-427.77
411.473	-713.77
411.6	-296.77
411.728	-532.77
411.856	-805.77
411.984	-813.77
412.112	-196.77
412.239	-299.77
412.367	-513.77
412.495	174.23
412.623	-650.77
412.751	-48.77
412.878	-880.77
413.006	-412.77
413.134	160.23
413.262	254.23
413.39	-118.77
413.517	-255.77
413.645	51.23
413.773	-853.77
413.901	475.23
414.028	-554.77
414.156	-345.77
414.284	-693.77
414.412	91.23
414.539	-608.77
414.667	-632.77
414.795	-696.77
414.923	-986.77
415.05	-555.77
415.178	-113.77
415.306	745.23
415.433	-630.77
415.561	60.23
415.689	63.23
415.816	-656.77
415.944	397.23
416.072	-829.77
416.2	20.23
416.327	531.23
416.455	-711.77
416.583	-577.77
416.71	-643.77
416.838	261.23
416.966	-801.77
417.093	-483.77
417.221	84.23
417.348	-185.77
417.476	-839.77
417.604	-471.77
417.731	-432.77
417.859	18.23
417.987	-227.77
418.114	-721.77
418.242	146.23
418.369	-555.77
418.497	-876.77
418.625	263.23
418.752	-302.77
418.88	-736.77
419.007	402.23
419.135	-277.77
419.263	-539.77
419.39	33.23
419.518	179.23
419.645	41.23
419.773	1401.23
419.9	3895.23
420.028	9697.23
420.155	11414.23
420.283	13024.23
420.41	13199.23
420.538	13356.23
420.666	13359.23
420.793	13359.23
420.921	13359.23
421.048	13359.23
421.176	13359.23
421.303	10365.23
421.431	2437.23
421.558	290.23
421.686	838.23
421.813	397.23
421.941	-280.77
422.068	61.23
422.195	386.23
422.323	293.23
422.45	-758.77
422.578	-78.77
422.705	-511.77
422.833	-187.77
422.96	-591.77
423.088	26.23
423.215	902.23
423.343	881.23
423.47	-117.77
423.597	588.23
423.725	-296.77
423.852	-315.77
423.98	-164.77
424.107	-832.77
424.234	-355.77
424.362	-559.77
424.489	-554.77
424.617	1391.23
424.744	-190.77
424.871	-766.77
424.999	-391.77
425.126	407.23
425.253	-125.77
425.381	-541.77
425.508	-801.77
425.636	154.23
425.763	-456.77
425.89	-599.77
426.018	-808.77
426.145	-422.77
426.272	-193.77
426.4	89.23
426.527	192.23
426.654	-662.77
426.781	-129.77
426.909	-210.77
427.036	-244.77
427.163	-905.77
427.291	-732.77
427.418	-423.77
427.545	-373.77
427.673	-834.77
427.8	-947.77
427.927	-727.77
428.054	-157.77
428.182	-432.77
428.309	-469.77
428.436	-559.77
428.563	-798.77
428.691	-94.77
428.818	-543.77
428.945	-42.77
429.072	-832.77
429.2	-55.77
429.327	-205.77
429.454	158.23
429.581	-361.77
429.708	-948.77
429.836	-709.77
429.963	-530.77
430.09	-578.77
430.217	-579.77
430.344	-773.77
430.472	-657.77
430.599	-106.77
430.726	-524.77
430.853	-352.77
430.98	-76.77
431.107	-769.77
431.235	-264.77
431.362	-129.77
431.489	-405.77
431.616	553.23
431.743	229.23
431.87	-981.77
431.997	-450.77
432.125	-348.77
432.252	-1094.77
432.379	-493.77
432.506	-231.77
432.633	-737.77
432.76	-283.77
432.887	232.23
433.014	-490.77
433.141	-740.77
433.268	100.23
433.395	-642.77
433.523	-534.77
433.65	-482.77
433.777	-451.77
433.904	-495.77
434.031	-906.77
434.158	-313.77
434.285	54.23
434.412	-990.77
434.539	-409.77
434.666	-823.77
434.793	-743.77
434.92	-796.77
435.047	-117.77
435.174	-459.77
435.301	-20.77
435.428	593.23
435.555	455.23
435.682	-178.77
435.809	-802.77
435.936	263.23
436.063	-673.77
436.19	248.23
436.317	-602.77
436.444	68.23
436.571	-742.77
436.698	-176.77
436.825	173.23
436.952	-123.77
437.079	-223.77
437.206	-0.77
437.333	-712.77
437.46	-476.77
437.587	-372.77
437.714	-820.77
437.84	-351.77
437.967	-873.77
438.094	-903.77
438.221	156.23
438.348	-347.77
438.475	13270.23
438.602	-748.77
438.729	-8.77
438.856	-602.77
438.983	-583.77
439.109	-90.77
439.236	301.23
439.363	-1094.77
439.49	-526.77
439.617	-362.77
439.744	-593.77
439.871	1033.23
439.997	-638.77
440.124	-352.77
440.251	-114.77
440.378	-644.77
440.505	-523.77
440.632	192.23
440.758	281.23
440.885	585.23
441.012	-629.77
441.139	9.23
441.266	-752.77
441.392	-433.77
441.519	-758.77
441.646	-925.77
441.773	-158.77
441.9	558.23
442.026	-488.77
442.153	-279.77
442.28	-133.77
442.407	-750.77
442.533	66.23
442.66	-178.77
442.787	-377.77
442.914	-669.77
443.04	-566.77
443.167	-457.77
443.294	-353.77
443.421	-150.77
443.547	-757.77
443.674	-455.77
443.801	-203.77
443.927	164.23
444.054	897.23
444.181	91.23
444.307	191.23
444.434	-79.77
444.561	-728.77
444.688	-906.77
444.814	-73.77
444.941	-435.77
445.068	-786.77
445.194	570.23
445.321	-719.77
445.447	585.23
445.574	-959.77
445.701	-967.77
445.827	-539.77
445.954	-969.77
446.081	13.23
446.207	-795.77
446.334	-437.77
446.461	-438.77
446.587	-977.77
446.714	17.23
446.84	26.23
446.967	-534.77
447.094	-492.77
447.22	68.23
447.347	-460.77
447.473	-561.77
447.6	-179.77
447.726	-1010.77
447.853	-384.77
447.98	-318.77
448.106	-199.77
448.233	-353.77
448.359	-663.77
448.486	-96.77
448.612	-547.77
448.739	-192.77
448.865	102.23
448.992	591.23
449.118	-496.77
449.245	-833.77
449.371	-825.77
449.498	-236.77
449.624	-25.77
449.751	-290.77
449.877	-698.77
450.004	-229.77
450.13	-241.77
450.257	-761.77
450.383	-443.77
450.51	-871.77
450.636	-637.77
450.763	-458.77
450.889	-680.77
451.016	-964.77
451.142	-141.77
451.269	-715.77
451.395	491.23
451.521	-369.77
451.648	-679.77
451.774	-344.77
451.901	-978.77
452.027	-345.77
452.154	159.23
452.28	-528.77
452.406	-703.77
452.533	-520.77
452.659	-806.77
452.785	-485.77
452.912	-860.77
453.038	-767.77
453.165	-102.77
453.291	296.23
453.417	297.23
453.544	-688.77
453.67	-509.77
453.796	298.23
453.923	-826.77
454.049	-498.77
454.175	-627.77
454.302	-645.77
454.428	-187.77
454.554	-175.77
454.681	-629.77
454.807	-741.77
454.933	642.23
455.06	-141.77
455.186	-421.77
455.312	121.23
455.439	35.23
455.565	-757.77
455.691	-796.77
455.817	-65.77
455.944	126.23
456.07	-332.77
456.196	-120.77
456.322	-987.77
456.449	-1000.77
456.575	-290.77
456.701	-657.77
456.827	-711.77
456.954	-898.77
457.08	-688.77
457.206	-1045.77
457.332	-386.77
457.459	-952.77
457.585	-696.77
457.711	-647.77
457.837	-120.77
457.963	-279.77
458.09	-749.77
458.216	-796.77
458.342	-437.77
458.468	-628.77
458.594	-442.77
458.721	-356.77
458.847	-328.77
458.973	-955.77
459.099	-469.77
459.225	-416.77
459.351	-629.77
459.477	-232.77
459.604	-795.77
459.73	-540.77
459.856	-791.77
459.982	-424.77
460.108	-960.77
460.234	-1000.77
460.36	-604.77
460.486	-98.77
460.613	-772.77
460.739	104.23
460.865	-600.77
460.991	383.23
461.117	452.23
461.243	-730.77
461.369	-868.77
461.495	-630.77
461.621	-379.77
461.747	-188.77
461.873	-109.77
461.999	-817.77
462.125	-412.77
462.252	79.23
462.378	-312.77
462.504	-205.77
462.63	-187.77
462.756	-777.77
462.882	-705.77
463.008	-671.77
463.134	-20.77
463.26	-894.77
463.386	-590.77
463.512	-354.77
463.638	-591.77
463.764	-801.77
463.89	-575.77
464.016	70.23
464.142	-31.77
464.268	-754.77
464.394	-592.77
464.52	-886.77
464.645	-170.77
464.771	133.23
464.897	-680.77
465.023	-729.77
465.149	-252.77
465.275	-890.77
465.401	-754.77
465.527	205.23
465.653	-218.77
465.779	141.23
465.905	-845.77
466.031	-397.77
466.157	-666.77
466.282	-546.77
466.408	-719.77
466.534	-399.77
466.66	-981.77
466.786	-493.77
466.912	-353.77
467.038	-514.77
467.164	-480.77
467.289	-587.77
467.415	-527.77
467.541	-460.77
467.667	-416.77
467.793	-544.77
467.919	-260.77
468.045	89.23
468.17	-723.77
468.296	-415.77
468.422	-577.77
468.548	-49.77
468.674	-955.77
468.799	-729.77
468.925	-631.77
469.051	-870.77
469.177	-940.77
469.303	-906.77
469.428	-36.77
469.554	-736.77
469.68	-641.77
469.806	-165.77
469.931	-380.77
470.057	895.23
470.183	-1091.77
470.309	-602.77
470.434	222.23
470.56	-562.77
470.686	-243.77
470.812	-440.77
470.937	-827.77
471.063	-779.77
471.189	-182.77
471.315	140.23
471.44	-235.77
471.566	-571.77
471.692	144.23
471.817	-662.77
471.943	-427.77
472.069	-166.77
472.194	-491.77
472.32	-615.77
472.446	-86.77
472.571	-858.77
472.697	-604.77
472.823	-230.77
472.948	-887.77
473.074	-441.77
473.2	-413.77
473.325	-853.77
473.451	-551.77
473.577	-489.77
473.702	-1012.77
473.828	-506.77
473.953	-893.77
474.079	-407.77
474.205	-842.77
474.33	-827.77
474.456	-579.77
474.581	417.23
474.707	-573.77
474.833	-567.77
474.958	-244.77
475.084	-20.77
475.209	-593.77
475.335	-787.77
475.46	-317.77
475.586	-565.77
475.712	-241.77
475.837	-558.77
475.963	-638.77
476.088	-1023.77
476.214	-692.77
476.339	-600.77
476.465	-700.77
476.59	-966.77
476.716	206.23
476.841	-918.77
476.967	386.23
477.092	-549.77
477.218	-232.77
477.343	-800.77
477.469	346.23
477.594	-740.77
477.72	-771.77
477.845	-254.77
477.971	-625.77
478.096	-431.77
478.222	-579.77
478.347	8108.23
478.472	-55.77
478.598	-811.77
478.723	-548.77
478.849	-74.77
478.974	-280.77
479.1	-834.77
479.225	-218.77
479.35	-565.77
479.476	-186.77
479.601	-789.77
479.727	65.23
479.852	-702.77
479.977	-255.77
480.103	-470.77
480.228	387.23
480.354	-509.77
480.479	90.23
480.604	-728.77
480.73	-597.77
480.855	-934.77
480.98	25.23
481.106	-957.77
481.231	-882.77
481.356	-732.77
481.482	-1059.77
481.607	-847.77
481.732	-1120.77
481.858	-548.77
481.983	-901.77
482.108	-734.77
482.234	-979.77
482.359	-692.77
482.484	196.23
482.61	-780.77
482.735	-311.77
482.86	-995.77
482.985	-685.77
483.111	-591.77
483.236	-136.77
483.361	-585.77
483.486	-771.77
483.612	-33.77
483.737	-1007.77
483.862	-484.77
483.987	-254.77
484.113	-1116.77
484.238	-155.77
484.363	-854.77
484.488	-590.77
484.614	-89.77
484.739	-486.77
484.864	77.23
484.989	953.23
485.114	-277.77
485.24	-379.77
485.365	-616.77
485.49	-1042.77
485.615	-64.77
485.74	-494.77
485.865	-274.77
485.991	-414.77
486.116	-337.77
486.241	-935.77
486.366	-884.77
486.491	-245.77
486.616	-840.77
486.742	-503.77
486.867	-453.77
486.992	-858.77
487.117	-850.77
487.242	-743.77
487.367	-1031.77
487.492	-622.77
487.617	-199.77
487.742	-366.77
487.868	-738.77
487.993	-151.77
488.118	-385.77
488.243	-254.77
488.368	-618.77
488.493	-1098.77
488.618	-674.77
488.743	-589.77
488.868	-773.77
488.993	-524.77
489.118	-47.77
489.243	-367.77
489.368	-607.77
489.493	-30.77
489.618	-417.77
489.743	-839.77
489.868	-382.77
489.993	-771.77
490.118	-1088.77
490.243	886.23
490.368	-629.77
490.493	-183.77
490.618	-65.77
490.743	-1053.77
490.868	-427.77
490.993	-421.77
491.118	-116.77
491.243	-839.77
491.368	-450.77
491.493	-202.77
491.618	-505.77
491.743	-555.77
491.868	-725.77
491.993	-497.77
492.118	-800.77
492.243	-313.77
492.368	-280.77
492.493	-723.77
492.618	159.23
492.743	-561.77
492.867	12.23
492.992	-497.77
493.117	-75.77
493.242	-664.77
493.367	-552.77
493.492	92.23
493.617	-808.77
493.742	173.23
493.867	-504.77
493.991	-994.77
494.116	-494.77
494.241	-345.77
494.366	-547.77
494.491	-176.77
494.616	58.23
494.74	-733.77
494.865	-922.77
494.99	-691.77
495.115	-593.77
495.24	-387.77
495.365	-633.77
495.489	-679.77
495.614	-360.77
495.739	-480.77
495.864	-729.77
495.989	-1012.77
496.113	-100.77
496.238	-342.77
496.363	-718.77
496.488	-858.77
496.612	-149.77
496.737	-640.77
496.862	-538.77
496.987	-643.77
497.111	-899.77
497.236	-746.77
497.361	-804.77
497.486	153.23
497.61	-84.77
497.735	-496.77
497.86	-177.77
497.984	-220.77
498.109	-1052.77
498.234	-697.77
498.359	-747.77
498.483	-457.77
498.608	-533.77
498.733	-579.77
498.857	-866.77
498.982	-437.77
499.107	-1043.77
499.231	-442.77
499.356	-651.77
499.481	196.23
499.605	-1179.77
499.73	-835.77
499.855	60.23
499.979	-821.77
500.104	-533.77
500.228	274.23
500.353	-572.77
500.478	-929.77
500.602	-299.77
500.727	222.23
500.852	-171.77
500.976	-1082.77
501.101	-696.77
501.225	411.23
501.35	-891.77
501.474	-818.77
501.599	-73.77
501.724	-611.77
501.848	-551.77
501.973	120.23
502.097	-951.77
502.222	-1107.77
502.346	-45.77
502.471	-250.77
502.595	-821.77
502.72	-906.77
502.844	-861.77
502.969	-601.77
503.094	295.23
503.218	-921.77
503.343	-743.77
503.467	-744.77
503.592	-650.77
503.716	-605.77
503.841	-344.77
503.965	394.23
504.089	-626.77
504.214	-913.77
504.338	-588.77
504.463	-186.77
504.587	-453.77
504.712	-386.77
504.836	-494.77
504.961	669.23
505.085	229.23
505.21	-722.77
505.334	-736.77
505.458	465.23
505.583	-934.77
505.707	-201.77
505.832	-656.77
505.956	-409.77
506.08	-838.77
506.205	-644.77
506.329	116.23
506.454	-950.77
506.578	-399.77
506.702	-792.77
506.827	231.23
506.951	-270.77
507.076	-492.77
507.2	-877.77
507.324	-173.77
507.449	61.23
507.573	-512.77
507.697	-622.77
507.822	-414.77
507.946	-558.77
508.07	-1026.77
508.195	-446.77
508.319	-620.77
508.443	-432.77
508.567	-1067.77
508.692	-919.77
508.816	-766.77
508.94	-590.77
509.065	-1125.77
509.189	-213.77
509.313	-199.77
509.437	-72.77
509.562	-576.77
509.686	-259.77
509.81	-513.77
509.935	-243.77
510.059	19.23
510.183	-747.77
510.307	-967.77
510.431	-134.77
510.556	-518.77
510.68	-661.77
510.804	-1071.77
510.928	-550.77
511.053	-970.77
511.177	-931.77
511.301	-471.77
511.425	-703.77
511.549	-404.77
511.674	-407.77
511.798	-406.77
511.922	-259.77
512.046	278.23
512.17	-595.77
512.294	-947.77
512.419	-382.77
512.543	-227.77
512.667	-582.77
512.791	-814.77
512.915	-297.77
513.039	-616.77
513.163	-169.77
513.288	329.23
513.412	-664.77
513.536	11.23
513.66	-802.77
513.784	-447.77
513.908	-343.77
514.032	-448.77
514.156	-17.77
514.28	-245.77
514.404	-611.77
514.528	-520.77
514.653	-125.77
514.777	-28.77
514.901	-294.77
515.025	59.23
515.149	-635.77
515.273	-337.77
515.397	-595.77
515.521	-538.77
515.645	-502.77
515.769	-815.77
515.893	-726.77
516.017	-746.77
516.141	-1019.77
516.265	-684.77
516.389	-757.77
516.513	-477.77
516.637	-733.77
516.761	-1177.77
516.885	-816.77
517.009	-588.77
517.133	-620.77
517.257	-621.77
517.381	-130.77
517.505	-56.77
517.629	220.23
517.753	-629.77
517.877	-967.77
518.001	-735.77
518.125	-525.77
518.248	-139.77
518.372	-529.77
518.496	-1024.77
518.62	-230.77
518.744	-443.77
518.868	-388.77
518.992	-465.77
519.116	-818.77
519.24	1001.23
519.364	39.23
519.488	-458.77
519.611	-989.77
519.735	-551.77
519.859	-637.77
519.983	-240.77
520.107	-554.77
520.231	-28.77
520.355	-532.77
520.478	-929.77
520.602	-873.77
520.726	153.23
520.85	-581.77
520.974	-35.77
521.098	-640.77
521.221	-902.77
521.345	14.23
521.469	-797.77
521.593	-475.77
521.717	90.23
521.84	-502.77
521.964	-852.77
522.088	-660.77
522.212	-642.77
522.335	-989.77
522.459	-824.77
522.583	543.23
522.707	-858.77
522.83	-1147.77
522.954	-766.77
523.078	-714.77
523.202	-41.77
523.325	-710.77
523.449	-467.77
523.573	-417.77
523.697	-774.77
523.82	-479.77
523.944	-672.77
524.068	-458.77
524.191	-559.77
524.315	-1073.77
524.439	-442.77
524.562	-44.77
524.686	-642.77
524.81	-829.77
524.933	-759.77
525.057	-681.77
525.181	-294.77
525.304	-960.77
525.428	101.23
525.552	-887.77
525.675	-561.77
525.799	-862.77
525.923	-456.77
526.046	-188.77
526.17	-995.77
526.293	-977.77
526.417	-521.77
526.541	-66.77
526.664	-631.77
526.788	-662.77
526.911	-325.77
527.035	-848.77
527.159	-638.77
527.282	-696.77
527.406	-787.77
527.529	-150.77
527.653	-863.77
527.776	-365.77
527.9	-826.77
528.024	-729.77
528.147	-655.77
528.271	-11.77
528.394	-119.77
528.518	-52.77
528.641	-924.77
528.765	-389.77
528.888	-490.77
529.012	-209.77
529.135	-592.77
529.259	86.23
529.382	-694.77
529.506	-791.77
529.629	-383.77
529.753	-953.77
529.876	166.23
530	85.23
530.123	-341.77
530.247	-875.77
530.37	-723.77
530.493	-444.77
530.617	-897.77
530.74	18.23
530.864	-241.77
530.987	-993.77
531.111	-325.77
531.234	-882.77
531.357	-136.77
531.481	-88.77
531.604	4.23
531.728	-1033.77
531.851	-431.77
531.974	-331.77
532.098	-620.77
532.221	-819.77
532.345	-626.77
532.468	-895.77
532.591	281.23
532.715	-568.77
532.838	-637.77
532.961	-533.77
533.085	-823.77
533.208	-444.77
533.331	-1091.77
533.455	56.23
533.578	-593.77
533.701	-308.77
533.825	-161.77
533.948	-658.77
534.071	-650.77
534.195	-197.77
534.318	-942.77
534.441	-678.77
534.564	-246.77
534.688	-812.77
534.811	-324.77
534.934	-528.77
535.058	-348.77
535.181	104.23
535.304	-238.77
535.427	-780.77
535.551	-1006.77
535.674	-603.77
535.797	-246.77
535.92	-146.77
536.043	-918.77
536.167	-972.77
536.29	-310.77
536.413	-350.77
536.536	-809.77
536.66	-695.77
536.783	-395.77
536.906	-359.77
537.029	-732.77
537.152	-721.77
537.275	-516.77
537.399	228.23
537.522	-1123.77
537.645	-676.77
537.768	-735.77
537.891	-240.77
538.014	-561.77
538.138	-786.77
538.261	-669.77
538.384	-500.77
538.507	-836.77
538.63	-778.77
538.753	164.23
538.876	-384.77
538.999	-860.77
539.123	-245.77
539.246	382.23
539.369	519.23
539.492	-815.77
539.615	-973.77
539.738	325.23
539.861	-695.77
539.984	-475.77
540.107	-371.77
540.23	-808.77
540.353	-748.77
540.476	-1162.77
540.599	-205.77
540.722	-908.77
540.846	-317.77
540.969	-1016.77
541.092	-417.77
541.215	-950.77
541.338	-384.77
541.461	-852.77
541.584	-529.77
541.707	-521.77
541.83	-695.77
541.953	-320.77
542.076	-477.77
542.199	-468.77
542.322	73.23
542.445	285.23
542.567	-616.77
542.69	-423.77
542.813	-569.77
542.936	-233.77
543.059	-495.77
543.182	429.23
543.305	198.23
543.428	-434.77
543.551	-644.77
543.674	79.23
543.797	-159.77
543.92	-614.77
544.043	505.23
544.166	-889.77
544.288	-562.77
544.411	-245.77
544.534	-900.77
544.657	-424.77
544.78	-494.77
544.903	-242.77
545.026	-608.77
545.149	-915.77
545.271	-864.77
545.394	-752.77
545.517	-1025.77
545.64	892.23
545.763	-565.77
545.886	-732.77
546.008	-360.77
546.131	-183.77
546.254	-598.77
546.377	-1024.77
546.5	-343.77
546.623	-291.77
546.745	-883.77
546.868	-533.77
546.991	-37.77
547.114	-510.77
547.236	-466.77
547.359	-832.77
547.482	-463.77
547.605	-842.77
547.728	-603.77
547.85	-884.77
547.973	-801.77
548.096	-677.77
548.219	-226.77
548.341	-529.77
548.464	-1040.77
548.587	-570.77
548.709	-609.77
548.832	-425.77
548.955	554.23
549.078	-37.77
549.2	-685.77
549.323	-624.77
549.446	168.23
549.568	-563.77
549.691	-188.77
549.814	-145.77
549.936	-676.77
550.059	-660.77
550.182	-869.77
550.304	-1049.77
550.427	-535.77
550.55	-762.77
550.672	-700.77
550.795	578.23
550.917	-815.77
551.04	-641.77
551.163	-235.77
551.285	158.23
551.408	-83.77
551.531	697.23
551.653	-867.77
551.776	-403.77
551.898	-396.77
552.021	-395.77
552.143	-494.77
552.266	-451.77
552.389	-587.77
552.511	-962.77
552.634	-890.77
552.756	-849.77
552.879	455.23
553.001	-3.77
553.124	-973.77
553.246	-776.77
553.369	19.23
553.492	-623.77
553.614	104.23
553.737	-1193.77
553.859	-248.77
553.982	-105.77
554.104	-296.77
554.227	-829.77
554.349	-612.77
554.472	-571.77
554.594	-1118.77
554.716	30.23
554.839	-218.77
554.961	-422.77
555.084	-774.77
555.206	-432.77
555.329	-1054.77
555.451	-984.77
555.574	-292.77
555.696	-859.77
555.819	-538.77
555.941	-485.77
556.063	-107.77
556.186	-522.77
556.308	-311.77
556.431	347.23
556.553	-47.77
556.675	-692.77
556.798	-640.77
556.92	-179.77
557.043	-622.77
557.165	-904.77
557.287	-169.77
557.41	-609.77
557.532	-379.77
557.654	-614.77
557.777	-137.77
557.899	-547.77
558.021	-626.77
558.144	206.23
558.266	32.23
558.388	503.23
558.511	-441.77
558.633	-506.77
558.755	-745.77
558.878	-846.77
559	-85.77
559.122	-1061.77
559.244	-790.77
559.367	-649.77
559.489	97.23
559.611	236.23
559.734	-545.77
559.856	-487.77
559.978	-348.77
560.1	-466.77
560.223	-538.77
560.345	-14.77
560.467	-864.77
560.589	-588.77
560.712	-700.77
560.834	309.23
560.956	-881.77
561.078	-502.77
561.2	-446.77
561.323	135.23
561.445	-914.77
561.567	-670.77
561.689	-945.77
561.811	-273.77
561.934	-472.77
562.056	-535.77
562.178	-273.77
562.3	-669.77
562.422	-256.77
562.544	-418.77
562.666	-103.77
562.789	-377.77
562.911	-332.77
563.033	-53.77
563.155	-246.77
563.277	-782.77
563.399	-970.77
563.521	-569.77
563.643	-847.77
563.766	-506.77
563.888	60.23
564.01	-294.77
564.132	-921.77
564.254	-987.77
564.376	123.23
564.498	-429.77
564.62	158.23
564.742	-565.77
564.864	-872.77
564.986	-372.77
565.108	504.23
565.23	-731.77
565.352	-19.77
565.474	-298.77
565.597	226.23
565.719	52.23
565.841	-885.77
565.963	-296.77
566.085	-469.77
566.207	-571.77
566.329	71.23
566.451	84.23
566.573	-688.77
566.695	-692.77
566.817	449.23
566.938	-785.77
567.06	-596.77
567.182	-417.77
567.304	-422.77
567.426	-866.77
567.548	8.23
567.67	-393.77
567.792	-479.77
567.914	-746.77
568.036	-571.77
568.158	-412.77
568.28	-740.77
568.402	-196.77
568.524	-643.77
568.646	-855.77
568.767	-539.77
568.889	-73.77
569.011	-621.77
569.133	-777.77
569.255	-941.77
569.377	-855.77
569.499	-419.77
569.621	-803.77
569.742	566.23
569.864	-54.77
569.986	645.23
570.108	-203.77
570.23	-829.77
570.352	181.23
570.473	-436.77
570.595	-584.77
570.717	-860.77
570.839	-309.77
570.961	-146.77
571.082	-623.77
571.204	-737.77
571.326	-789.77
571.448	-172.77
571.57	-95.77
571.691	-400.77
571.813	-301.77
571.935	-24.77
572.057	-487.77
572.178	-799.77
572.3	251.23
572.422	176.23
572.544	281.23
572.665	-631.77
572.787	-857.77
572.909	144.23
573.031	-314.77
573.152	-845.77
573.274	-149.77
573.396	-229.77
573.517	-142.77
573.639	-975.77
573.761	-746.77
573.882	-493.77
574.004	-195.77
574.126	-690.77
574.247	-67.77
574.369	-148.77
574.491	-533.77
574.612	-766.77
574.734	-401.77
574.856	-444.77
574.977	-286.77
575.099	-241.77
575.221	-351.77
575.342	-614.77
575.464	-421.77
575.585	-100.77
575.707	-812.77
575.829	116.23
575.95	8.23
576.072	-553.77
576.193	-774.77
576.315	-697.77
576.437	-572.77
576.558	-396.77
576.68	-503.77
576.801	226.23
576.923	-903.77
577.044	106.23
577.166	-917.77
577.287	-513.77
577.409	-678.77
577.531	-427.77
577.652	-84.77
577.774	-1021.77
577.895	-522.77
578.017	-669.77
578.138	-692.77
578.26	-610.77
578.381	-279.77
578.503	-625.77
578.624	-666.77
578.746	-1052.77
578.867	-592.77
578.988	-235.77
579.11	288.23
579.231	-329.77
579.353	-773.77
579.474	-376.77
579.596	-562.77
579.717	-456.77
579.839	-527.77
579.96	-1005.77
580.081	-154.77
580.203	-619.77
580.324	-418.77
580.446	-39.77
580.567	-338.77
580.688	285.23
580.81	-922.77
580.931	-564.77
581.053	-954.77
581.174	-450.77
581.295	-809.77
581.417	-116.77
581.538	-97.77
581.659	-154.77
581.781	-531.77
581.902	-617.77
582.024	-813.77
582.145	-817.77
582.266	-879.77
582.388	-403.77
582.509	-846.77
582.63	-447.77
582.751	-688.77
582.873	-480.77
582.994	-622.77
583.115	-599.77
583.237	-408.77
583.358	-656.77
583.479	-997.77
583.6	-138.77
583.722	-579.77
583.843	-800.77
583.964	210.23
584.086	-669.77
584.207	-313.77
584.328	-833.77
584.449	-198.77
584.57	-403.77
584.692	-510.77
584.813	2093.23
584.934	-324.77
585.055	-850.77
585.177	-201.77
585.298	-346.77
585.419	-844.77
585.54	343.23
585.661	-270.77
585.783	-267.77
585.904	-684.77
586.025	-26.77
586.146	-861.77
586.267	-537.77
586.388	-597.77
586.51	537.23
586.631	-943.77
586.752	-741.77
586.873	-581.77
586.994	-960.77
587.115	-937.77
587.236	-573.77
587.357	-1010.77
587.479	-842.77
587.6	89.23
587.721	-503.77
587.842	-745.77
587.963	346.23
588.084	23.23
588.205	-821.77
588.326	-500.77
588.447	-541.77
588.568	-630.77
588.689	-352.77
588.81	-294.77
588.931	-621.77
589.052	-777.77
589.174	-685.77
589.295	-229.77
589.416	-416.77
589.537	-69.77
589.658	-592.77
589.779	-1006.77
589.9	-11.77
590.021	-757.77
590.142	-670.77
590.263	-869.77
590.384	-452.77
590.505	373.23
590.626	-757.77
590.747	-361.77
590.867	-354.77
590.988	-369.77
591.109	-516.77
591.23	274.23
591.351	-158.77
591.472	-615.77
591.593	-548.77
591.714	-310.77
591.835	-630.77
591.956	-749.77
592.077	-999.77
592.198	-540.77
592.319	-472.77
592.44	-176.77
592.56	-664.77
592.681	-950.77
592.802	-259.77
592.923	-595.77
593.044	-624.77
593.165	-848.77
593.286	-354.77
593.407	-860.77
593.527	42.23
593.648	-798.77
593.769	-270.77
593.89	150.23
594.011	-459.77
594.132	-572.77
594.252	-256.77
594.373	-872.77
594.494	-969.77
594.615	-506.77
594.736	-649.77
594.856	1.23
594.977	-802.77
595.098	-313.77
595.219	-862.77
595.34	-392.77
595.46	-795.77
595.581	455.23
595.702	-490.77
595.823	-845.77
595.943	-178.77
596.064	-434.77
596.185	162.23
596.306	-1057.77
596.426	-753.77
596.547	-882.77
596.668	-342.77
596.788	-267.77
596.909	-379.77
597.03	-307.77
597.151	-481.77
597.271	-825.77
597.392	-509.77
597.513	-227.77
597.633	-139.77
597.754	-450.77
597.875	-421.77
597.995	163.23
598.116	-422.77
598.237	-626.77
598.357	-720.77
598.478	-711.77
598.599	277.23
598.719	-548.77
598.84	-812.77
598.96	-737.77
599.081	-491.77
599.202	-582.77
599.322	-758.77
599.443	-834.77
599.563	-270.77
599.684	-89.77
599.805	-553.77
599.925	-913.77
600.046	458.23
600.166	-610.77
600.287	-287.77
600.407	-353.77
600.528	45.23
600.649	-276.77
600.769	-333.77
600.89	-903.77
601.01	-151.77
601.131	-776.77
601.251	439.23
601.372	-247.77
601.492	-687.77
601.613	-785.77
601.733	-629.77
601.854	353.23
601.974	576.23
602.095	185.23
602.215	-838.77
602.336	-866.77
602.456	379.23
602.577	-739.77
602.697	1727.23
602.817	-56.77
602.938	-443.77
603.058	-282.77
603.179	-822.77
603.299	-804.77
603.42	-1009.77
603.54	-382.77
603.66	-871.77
603.781	-277.77
603.901	-700.77
604.022	153.23
604.142	-403.77
604.262	-377.77
604.383	-747.77
604.503	118.23
604.624	-727.77
604.744	-287.77
604.864	-206.77
604.985	-649.77
605.105	-287.77
605.225	-344.77
605.346	-482.77
605.466	-194.77
605.586	532.23
605.707	674.23
605.827	-937.77
605.947	-602.77
606.068	-528.77
606.188	-563.77
606.308	-695.77
606.429	-154.77
606.549	-557.77
606.669	-867.77
606.789	-767.77
606.91	-253.77
607.03	-756.77
607.15	-636.77
607.27	-329.77
607.391	-122.77
607.511	-643.77
607.631	-777.77
607.751	115.23
607.872	-117.77
607.992	-725.77
608.112	51.23
608.232	-689.77
608.353	-858.77
608.473	-703.77
608.593	247.23
608.713	715.23
608.833	-522.77
608.954	-753.77
609.074	-561.77
609.194	-847.77
609.314	395.23
609.434	-93.77
609.554	-449.77
609.675	-299.77
609.795	-808.77
609.915	-715.77
610.035	750.23
610.155	-550.77
610.275	-723.77
610.395	-109.77
610.516	-906.77
610.636	-385.77
610.756	-251.77
610.876	-138.77
610.996	-723.77
611.116	370.23
611.236	-930.77
611.356	-615.77
611.476	-414.77
611.596	-323.77
611.716	192.23
611.836	-703.77
611.957	-792.77
612.077	-446.77
612.197	-263.77
612.317	-705.77
612.437	83.23
612.557	5.23
612.677	-566.77
612.797	-314.77
612.917	-966.77
613.037	-225.77
613.157	-452.77
613.277	-309.77
613.397	235.23
613.517	187.23
613.637	-827.77
613.757	-372.77
613.877	-693.77
613.997	-249.77
614.117	-798.77
614.237	-518.77
614.356	-283.77
614.476	-35.77
614.596	-118.77
614.716	-403.77
614.836	-480.77
614.956	-105.77
615.076	-448.77
615.196	-790.77
615.316	-275.77
615.436	-198.77
615.556	183.23
615.676	461.23
615.795	-250.77
615.915	-342.77
616.035	-719.77
616.155	-427.77
616.275	-646.77
616.395	-696.77
616.515	-163.77
616.635	-1057.77
616.754	-1029.77
616.874	-177.77
616.994	-473.77
617.114	633.23
617.234	133.23
617.354	-203.77
617.473	551.23
617.593	-540.77
617.713	-321.77
617.833	-230.77
617.953	-384.77
618.072	-1125.77
618.192	-727.77
618.312	66.23
618.432	-97.77
618.551	-726.77
618.671	-696.77
618.791	-227.77
618.911	-417.77
619.03	-449.77
619.15	-343.77
619.27	-519.77
619.39	-647.77
619.509	-370.77
619.629	-575.77
619.749	-778.77
619.868	-381.77
619.988	-832.77
620.108	-582.77
620.228	1570.23
620.347	-386.77
620.467	-745.77
620.587	-746.77
620.706	69.23
620.826	-827.77
620.946	-727.77
621.065	-93.77
621.185	572.23
621.305	-645.77
621.424	-547.77
621.544	-990.77
621.663	-363.77
621.783	-685.77
621.903	504.23
622.022	-786.77
622.142	-480.77
622.261	269.23
622.381	-359.77
622.501	-187.77
622.62	-574.77
622.74	-384.77
622.859	-479.77
622.979	199.23
623.099	-595.77
623.218	-267.77
623.338	436.23
623.457	-185.77
623.577	-739.77
623.696	-302.77
623.816	-957.77
623.935	-727.77
624.055	-782.77
624.174	-541.77
624.294	-381.77
624.413	-924.77
624.533	-395.77
624.652	184.23
624.772	-689.77
624.891	-908.77
625.011	-109.77
625.13	-662.77
625.25	-900.77
625.369	-581.77
625.489	-642.77
625.608	-775.77
625.728	-393.77
625.847	-358.77
625.966	-894.77
626.086	-731.77
626.205	-903.77
626.325	-245.77
626.444	-369.77
626.564	197.23
626.683	87.23
626.802	-53.77
626.922	28.23
627.041	-258.77
627.161	-367.77
627.28	-81.77
627.399	-123.77
627.519	-440.77
627.638	-912.77
627.757	-690.77
627.877	-592.77
627.996	-622.77
628.115	-109.77
628.235	-158.77
628.354	-908.77
628.473	-437.77
628.593	218.23
628.712	-354.77
628.831	-395.77
628.951	-915.77
629.07	187.23
629.189	-316.77
629.309	-550.77
629.428	257.23
629.547	-829.77
629.666	-82.77
629.786	-458.77
629.905	-873.77
630.024	-72.77
630.143	-233.77
630.263	-471.77
630.382	437.23
630.501	-406.77
630.62	-523.77
630.74	-835.77
630.859	89.23
630.978	-456.77
631.097	-844.77
631.216	-873.77
631.336	144.23
631.455	-668.77
631.574	-605.77
631.693	-211.77
631.812	-590.77
631.932	-986.77
632.051	260.23
632.17	574.23
632.289	-131.77
632.408	-542.77
632.527	-281.77
632.646	-424.77
632.766	-808.77
632.885	411.23
633.004	-856.77
633.123	-473.77
633.242	-783.77
633.361	1601.23
633.48	-721.77
633.599	-790.77
633.718	-100.77
633.838	-193.77
633.957	-954.77
634.076	-341.77
634.195	-669.77
634.314	-62.77
634.433	-39.77
634.552	-731.77
634.671	-334.77
634.79	546.23
634.909	66.23
635.028	-448.77
635.147	-223.77
635.266	-716.77
635.385	-269.77
635.504	-873.77
635.623	-267.77
635.742	-860.77
635.861	-843.77
635.98	-421.77
636.099	-737.77
636.218	-391.77
636.337	-328.77
636.456	536.23
636.575	-193.77
636.694	-264.77
636.813	-816.77
636.932	-834.77
637.051	-471.77
637.17	-885.77
637.289	-243.77
637.408	-897.77
637.526	-511.77
637.645	-1012.77
637.764	-833.77
637.883	-687.77
638.002	-140.77
638.121	928.23
638.24	-778.77
638.359	-127.77
638.478	-644.77
638.597	-748.77
638.715	964.23
638.834	-442.77
638.953	-141.77
639.072	-841.77
639.191	-916.77
639.31	-106.77
639.428	-450.77
639.547	-196.77
639.666	-106.77
639.785	-228.77
639.904	-497.77
640.023	-882.77
640.141	-494.77
640.26	-620.77
640.379	-189.77
640.498	-921.77
640.616	-302.77
640.735	-502.77
640.854	-29.77
640.973	-824.77
641.092	-37.77
641.21	-208.77
641.329	-636.77
641.448	10.23
641.567	464.23
641.685	-450.77
641.804	-618.77
641.923	-345.77
642.041	-702.77
642.16	-562.77
642.279	-11.77
642.398	-568.77
642.516	-624.77
642.635	209.23
642.754	-635.77
642.872	118.23
642.991	159.23
643.11	-636.77
643.228	-936.77
643.347	-791.77
643.466	-878.77
643.584	15.23
643.703	376.23
643.821	-269.77
643.94	-244.77
644.059	-293.77
644.177	-40.77
644.296	-759.77
644.415	-575.77
644.533	-445.77
644.652	-177.77
644.77	-848.77
644.889	-754.77
645.008	-154.77
645.126	-699.77
645.245	-51.77
645.363	210.23
645.482	-313.77
645.6	-494.77
645.719	-484.77
645.837	-517.77
645.956	-348.77
646.074	-896.77
646.193	-715.77
646.312	25.23
646.43	308.23
646.549	307.23
646.667	-1023.77
646.786	-789.77
646.904	-83.77
647.023	-257.77
647.141	-812.77
647.26	-29.77
647.378	796.23
647.496	-625.77
647.615	-30.77
647.733	-347.77
647.852	348.23
647.97	-768.77
648.089	15.23
648.207	-116.77
648.326	39.23
648.444	-504.77
648.562	-388.77
648.681	-172.77
648.799	-584.77
648.918	-405.77
649.036	-296.77
649.154	-540.77
649.273	19.23
649.391	-644.77
649.51	-649.77
649.628	-790.77
649.746	211.23
649.865	-733.77
649.983	-736.77
650.101	-322.77
650.22	-433.77
650.338	-764.77
650.456	-473.77
650.575	-515.77
650.693	-838.77
650.811	-268.77
650.93	-832.77
651.048	2760.23
651.166	612.23
651.285	-511.77
651.403	-74.77
651.521	-312.77
651.639	-554.77
651.758	-439.77
651.876	527.23
651.994	-740.77
652.112	58.23
652.231	-424.77
652.349	-679.77
652.467	-1108.77
652.585	-457.77
652.704	-174.77
652.822	-941.77
652.94	-865.77
653.058	-233.77
653.176	-678.77
653.295	-342.77
653.413	7.23
653.531	-664.77
653.649	-541.77
653.767	-694.77
653.886	-706.77
654.004	-800.77
654.122	206.23
654.24	-891.77
654.358	-660.77
654.476	-557.77
654.594	301.23
654.713	-539.77
654.831	-970.77
654.949	-597.77
655.067	-281.77
655.185	-815.77
655.303	-685.77
655.421	-604.77
655.539	106.23
655.658	-363.77
655.776	-534.77
655.894	-28.77
656.012	198.23
656.13	-859.77
656.248	-550.77
656.366	-822.77
656.484	-658.77
656.602	-753.77
656.72	-719.77
656.838	-289.77
656.956	-635.77
657.074	-72.77
657.192	-206.77
657.31	-744.77
657.428	-614.77
657.546	-175.77
657.664	-333.77
657.782	-523.77
657.9	83.23
658.018	-529.77
658.136	-349.77
658.254	37.23
658.372	65.23
658.49	-731.77
658.608	-818.77
658.726	-226.77
658.844	-182.77
658.962	-565.77
659.08	-840.77
659.198	-299.77
659.316	-555.77
