Data from HR4D30811__1__00001.txt Node

Date: Fri Jan 26 16:31:34 MST 2024
User: Brock
Spectrometer: HR4D3081
Trigger mode: 4
Integration Time (sec): 8.000000E0
Scans to average: 1
Electric dark correction enabled: true
Nonlinearity correction enabled: false
Boxcar width: 0
XAxis mode: Wavelengths
Number of Pixels in Spectrum: 3648
>>>>>Begin Spectral Data<<<<<
197.25	-1225.46
197.385	-1225.46
197.519	-1225.46
197.653	-1222.46
197.787	171.54
197.922	-151.46
198.056	75.54
198.19	-16.46
198.324	30.54
198.459	-221.46
198.593	425.54
198.727	-29.46
198.861	-97.46
198.996	233.54
199.13	-266.46
199.264	-189.46
199.398	-56.46
199.533	263.54
199.667	108.54
199.801	-54.46
199.935	-258.46
200.07	-41.46
200.204	-8.46
200.338	-174.46
200.472	-201.46
200.606	-298.46
200.741	-163.46
200.875	-135.46
201.009	-92.46
201.143	-221.46
201.277	104.54
201.412	76.54
201.546	260.54
201.68	166.54
201.814	-172.46
201.948	67.54
202.082	-79.46
202.217	-317.46
202.351	-120.46
202.485	-71.46
202.619	-256.46
202.753	-325.46
202.887	292.54
203.021	112.54
203.156	216.54
203.29	18.54
203.424	-70.46
203.558	-197.46
203.692	-84.46
203.826	-314.46
203.96	-118.46
204.094	149.54
204.229	-170.46
204.363	-217.46
204.497	-328.46
204.631	-285.46
204.765	-223.46
204.899	-144.46
205.033	-124.46
205.167	-222.46
205.301	-19.46
205.435	-322.46
205.569	-55.46
205.704	-75.46
205.838	-316.46
205.972	-163.46
206.106	477.54
206.24	-169.46
206.374	-216.46
206.508	4.54
206.642	31.54
206.776	-104.46
206.91	164.54
207.044	22.54
207.178	96.54
207.312	-10.46
207.446	-141.46
207.58	-158.46
207.714	-275.46
207.848	127.54
207.982	-359.46
208.116	16.54
208.25	-251.46
208.384	-189.46
208.518	-162.46
208.652	-229.46
208.786	-259.46
208.92	217.54
209.054	-35.46
209.188	-253.46
209.322	-127.46
209.456	-109.46
209.59	-270.46
209.724	-94.46
209.858	-45.46
209.992	-115.46
210.126	-203.46
210.26	-155.46
210.394	-87.46
210.528	-24.46
210.662	-221.46
210.796	-157.46
210.929	138.54
211.063	-13.46
211.197	-49.46
211.331	-24.46
211.465	-195.46
211.599	64.54
211.733	94.54
211.867	-209.46
212.001	-174.46
212.135	-18.46
212.269	-236.46
212.402	-217.46
212.536	66.54
212.67	-112.46
212.804	-276.46
212.938	60.54
213.072	-229.46
213.206	-108.46
213.34	-141.46
213.473	-170.46
213.607	102.54
213.741	-288.46
213.875	-287.46
214.009	-225.46
214.143	-169.46
214.277	-130.46
214.41	-244.46
214.544	228.54
214.678	140.54
214.812	275.54
214.946	-262.46
215.08	-191.46
215.213	-217.46
215.347	-111.46
215.481	-107.46
215.615	-357.46
215.749	45.54
215.882	-219.46
216.016	-303.46
216.15	60.54
216.284	166.54
216.418	0.54
216.551	79.54
216.685	8.54
216.819	-280.46
216.953	-182.46
217.086	283.54
217.22	-164.46
217.354	-16.46
217.488	57.54
217.621	108.54
217.755	-51.46
217.889	-113.46
218.023	-58.46
218.156	101.54
218.29	70.54
218.424	173.54
218.558	-241.46
218.691	-375.46
218.825	-115.46
218.959	427.54
219.092	-156.46
219.226	-329.46
219.36	-296.46
219.494	-29.46
219.627	-203.46
219.761	-205.46
219.895	-147.46
220.028	-321.46
220.162	563.54
220.296	121.54
220.429	-42.46
220.563	-52.46
220.697	-42.46
220.83	-235.46
220.964	-190.46
221.098	-246.46
221.231	-268.46
221.365	76.54
221.499	-219.46
221.632	-251.46
221.766	49.54
221.9	-94.46
222.033	73.54
222.167	108.54
222.3	-207.46
222.434	-8.46
222.568	241.54
222.701	-162.46
222.835	-155.46
222.968	-220.46
223.102	-236.46
223.236	-255.46
223.369	4.54
223.503	-11.46
223.636	-240.46
223.77	-174.46
223.904	-23.46
224.037	-154.46
224.171	94.54
224.304	43.54
224.438	-167.46
224.571	-100.46
224.705	155.54
224.839	-42.46
224.972	-355.46
225.106	-34.46
225.239	-109.46
225.373	74.54
225.506	-57.46
225.64	91.54
225.773	-150.46
225.907	-210.46
226.04	-313.46
226.174	-81.46
226.307	-49.46
226.441	-161.46
226.575	-6.46
226.708	152.54
226.842	-108.46
226.975	-184.46
227.109	-207.46
227.242	20.54
227.375	55.54
227.509	-28.46
227.642	-147.46
227.776	65.54
227.909	91.54
228.043	-252.46
228.176	187.54
228.31	-261.46
228.443	328.54
228.577	-54.46
228.71	-147.46
228.844	-16.46
228.977	-284.46
229.111	-177.46
229.244	14.54
229.377	-315.46
229.511	-45.46
229.644	-192.46
229.778	-171.46
229.911	-183.46
230.044	-148.46
230.178	-26.46
230.311	-231.46
230.445	41.54
230.578	-211.46
230.711	-99.46
230.845	320.54
230.978	79.54
231.112	-260.46
231.245	-253.46
231.378	-252.46
231.512	41.54
231.645	-393.46
231.779	-331.46
231.912	-30.46
232.045	65.54
232.179	-176.46
232.312	-144.46
232.445	94.54
232.579	262.54
232.712	141.54
232.845	-198.46
232.979	-339.46
233.112	46.54
233.245	-92.46
233.379	-308.46
233.512	-30.46
233.645	-239.46
233.779	-256.46
233.912	35.54
234.045	-166.46
234.179	25.54
234.312	-164.46
234.445	19.54
234.578	-34.46
234.712	0.54
234.845	52.54
234.978	-155.46
235.112	-85.46
235.245	91.54
235.378	-165.46
235.511	-36.46
235.645	-0.46
235.778	-1.46
235.911	-179.46
236.044	-309.46
236.178	261.54
236.311	-252.46
236.444	-275.46
236.577	-248.46
236.711	-56.46
236.844	-406.46
236.977	-159.46
237.11	-188.46
237.243	0.54
237.377	-279.46
237.51	-226.46
237.643	924.54
237.776	-168.46
237.909	-133.46
238.043	-16.46
238.176	-255.46
238.309	-64.46
238.442	-325.46
238.575	-87.46
238.709	408.54
238.842	15.54
238.975	-36.46
239.108	171.54
239.241	-298.46
239.374	-245.46
239.508	-197.46
239.641	191.54
239.774	338.54
239.907	-40.46
240.04	-274.46
240.173	-0.46
240.306	223.54
240.44	-170.46
240.573	163.54
240.706	-154.46
240.839	11.54
240.972	-68.46
241.105	-62.46
241.238	16.54
241.371	-64.46
241.504	-83.46
241.638	-109.46
241.771	-5.46
241.904	-175.46
242.037	27.54
242.17	-186.46
242.303	-322.46
242.436	-93.46
242.569	-117.46
242.702	-218.46
242.835	-163.46
242.968	-23.46
243.101	-116.46
243.234	-240.46
243.367	-252.46
243.5	-123.46
243.634	-211.46
243.767	-297.46
243.9	-230.46
244.033	-241.46
244.166	84.54
244.299	-334.46
244.432	-242.46
244.565	31.54
244.698	-319.46
244.831	-190.46
244.964	-262.46
245.097	-192.46
245.23	10.54
245.363	148.54
245.496	-294.46
245.629	-157.46
245.762	439.54
245.895	-269.46
246.028	-206.46
246.161	404.54
246.294	34.54
246.427	-255.46
246.559	87.54
246.692	-65.46
246.825	-146.46
246.958	-221.46
247.091	-304.46
247.224	-330.46
247.357	-192.46
247.49	109.54
247.623	-203.46
247.756	-276.46
247.889	287.54
248.022	-96.46
248.155	-292.46
248.288	-126.46
248.421	-229.46
248.553	74.54
248.686	-230.46
248.819	83.54
248.952	-254.46
249.085	178.54
249.218	-60.46
249.351	-69.46
249.484	135.54
249.617	-74.46
249.749	-251.46
249.882	-254.46
250.015	-251.46
250.148	-164.46
250.281	-255.46
250.414	-165.46
250.547	-173.46
250.679	191.54
250.812	-85.46
250.945	-9.46
251.078	-276.46
251.211	-163.46
251.344	-285.46
251.476	-181.46
251.609	-0.46
251.742	-264.46
251.875	-77.46
252.008	-212.46
252.14	-330.46
252.273	-123.46
252.406	150.54
252.539	-24.46
252.672	-74.46
252.804	152.54
252.937	-268.46
253.07	-25.46
253.203	-100.46
253.335	99.54
253.468	-333.46
253.601	-147.46
253.734	-86.46
253.866	-172.46
253.999	385.54
254.132	-29.46
254.265	-128.46
254.397	-198.46
254.53	-156.46
254.663	1.54
254.796	-218.46
254.928	-270.46
255.061	-216.46
255.194	-65.46
255.327	-317.46
255.459	-35.46
255.592	-272.46
255.725	170.54
255.857	-214.46
255.99	6.54
256.123	-236.46
256.255	-244.46
256.388	-64.46
256.521	-288.46
256.653	-319.46
256.786	-228.46
256.919	-178.46
257.051	-253.46
257.184	-31.46
257.317	-208.46
257.449	-246.46
257.582	-117.46
257.715	-198.46
257.847	-250.46
257.98	-91.46
258.113	-187.46
258.245	-153.46
258.378	-366.46
258.51	-271.46
258.643	-255.46
258.776	37.54
258.908	-274.46
259.041	-83.46
259.174	-174.46
259.306	-188.46
259.439	-292.46
259.571	-225.46
259.704	-126.46
259.837	155.54
259.969	-209.46
260.102	-244.46
260.234	235.54
260.367	62.54
260.499	-226.46
260.632	-163.46
260.765	-219.46
260.897	-196.46
261.03	-252.46
261.162	-78.46
261.295	-35.46
261.427	64.54
261.56	-70.46
261.692	-270.46
261.825	-89.46
261.957	79.54
262.09	104.54
262.222	3.54
262.355	-264.46
262.487	-132.46
262.62	-303.46
262.752	-66.46
262.885	-146.46
263.017	35.54
263.15	-189.46
263.282	-69.46
263.415	-261.46
263.547	-37.46
263.68	201.54
263.812	-325.46
263.945	-132.46
264.077	-265.46
264.21	152.54
264.342	-269.46
264.475	-223.46
264.607	117.54
264.74	-370.46
264.872	-85.46
265.004	140.54
265.137	69.54
265.269	342.54
265.402	-272.46
265.534	-161.46
265.667	-170.46
265.799	59.54
265.931	-110.46
266.064	5.54
266.196	-147.46
266.329	-180.46
266.461	-175.46
266.593	17.54
266.726	-361.46
266.858	-179.46
266.99	-83.46
267.123	-148.46
267.255	-54.46
267.388	-126.46
267.52	-240.46
267.652	-224.46
267.785	110.54
267.917	-26.46
268.049	-134.46
268.182	386.54
268.314	43.54
268.446	-334.46
268.579	-211.46
268.711	197.54
268.843	-201.46
268.976	-44.46
269.108	363.54
269.24	147.54
269.373	-22.46
269.505	-169.46
269.637	-156.46
269.77	-223.46
269.902	141.54
270.034	-268.46
270.167	9.54
270.299	-16.46
270.431	-10.46
270.563	-211.46
270.696	15.54
270.828	-105.46
270.96	-72.46
271.092	-16.46
271.225	-250.46
271.357	-77.46
271.489	-192.46
271.621	-255.46
271.754	534.54
271.886	-215.46
272.018	-210.46
272.15	271.54
272.283	-248.46
272.415	-178.46
272.547	50.54
272.679	69.54
272.811	-110.46
272.944	-139.46
273.076	-341.46
273.208	-26.46
273.34	-92.46
273.473	-152.46
273.605	69.54
273.737	-282.46
273.869	-68.46
274.001	-379.46
274.133	-5.46
274.266	-226.46
274.398	1471.54
274.53	28.54
274.662	152.54
274.794	8.54
274.926	74.54
275.059	-187.46
275.191	-6.46
275.323	-235.46
275.455	102.54
275.587	-238.46
275.719	-156.46
275.851	-136.46
275.983	24.54
276.116	-5.46
276.248	107.54
276.38	-275.46
276.512	-40.46
276.644	-162.46
276.776	-256.46
276.908	-49.46
277.04	-135.46
277.172	57.54
277.304	-198.46
277.437	-19.46
277.569	-207.46
277.701	-237.46
277.833	-99.46
277.965	-170.46
278.097	38.54
278.229	-186.46
278.361	-177.46
278.493	98.54
278.625	175.54
278.757	20.54
278.889	-230.46
279.021	-161.46
279.153	512.54
279.285	-251.46
279.417	558.54
279.549	72.54
279.681	-104.46
279.813	-194.46
279.945	31.54
280.077	-218.46
280.209	1078.54
280.341	-288.46
280.473	-113.46
280.605	71.54
280.737	-29.46
280.869	210.54
281.001	-64.46
281.133	-331.46
281.265	-37.46
281.397	-153.46
281.529	298.54
281.661	-282.46
281.793	-333.46
281.925	-227.46
282.057	-123.46
282.189	-168.46
282.321	-35.46
282.453	31.54
282.585	-252.46
282.717	123.54
282.849	-87.46
282.98	-159.46
283.112	-237.46
283.244	-16.46
283.376	-267.46
283.508	-356.46
283.64	-241.46
283.772	78.54
283.904	80.54
284.036	-299.46
284.168	112.54
284.299	-39.46
284.431	-38.46
284.563	-142.46
284.695	-150.46
284.827	-245.46
284.959	-15.46
285.091	-258.46
285.222	-280.46
285.354	-201.46
285.486	-118.46
285.618	-270.46
285.75	-120.46
285.882	183.54
286.013	54.54
286.145	-56.46
286.277	-12.46
286.409	71.54
286.541	40.54
286.673	-222.46
286.804	-226.46
286.936	-61.46
287.068	-223.46
287.2	-241.46
287.332	304.54
287.463	-305.46
287.595	-61.46
287.727	386.54
287.859	-97.46
287.99	-118.46
288.122	-197.46
288.254	29.54
288.386	-156.46
288.517	-281.46
288.649	-170.46
288.781	-47.46
288.913	-21.46
289.044	-309.46
289.176	176.54
289.308	-179.46
289.44	-349.46
289.571	-213.46
289.703	-267.46
289.835	41.54
289.967	-251.46
290.098	-325.46
290.23	-327.46
290.362	87.54
290.493	-336.46
290.625	-216.46
290.757	-177.46
290.888	-129.46
291.02	-35.46
291.152	-36.46
291.283	-17.46
291.415	-162.46
291.547	-290.46
291.678	-228.46
291.81	-43.46
291.942	239.54
292.073	-13.46
292.205	-313.46
292.337	53.54
292.468	497.54
292.6	-192.46
292.732	579.54
292.863	-223.46
292.995	-348.46
293.126	57.54
293.258	181.54
293.39	-247.46
293.521	-247.46
293.653	-326.46
293.785	84.54
293.916	-152.46
294.048	7.54
294.179	-8.46
294.311	-238.46
294.442	41.54
294.574	-290.46
294.706	-103.46
294.837	60.54
294.969	-78.46
295.1	-177.46
295.232	-238.46
295.363	172.54
295.495	-173.46
295.627	-24.46
295.758	126.54
295.89	-330.46
296.021	29.54
296.153	40.54
296.284	-77.46
296.416	-143.46
296.547	-156.46
296.679	-79.46
296.81	-60.46
296.942	-345.46
297.073	-279.46
297.205	-291.46
297.336	-186.46
297.468	-249.46
297.599	-98.46
297.731	-320.46
297.862	-118.46
297.994	-324.46
298.125	-256.46
298.257	-143.46
298.388	28.54
298.52	-5.46
298.651	-84.46
298.782	257.54
298.914	-250.46
299.045	-176.46
299.177	-308.46
299.308	-320.46
299.44	8.54
299.571	-60.46
299.702	-164.46
299.834	-71.46
299.965	-162.46
300.097	-242.46
300.228	-25.46
300.36	-109.46
300.491	-94.46
300.622	-13.46
300.754	-139.46
300.885	-236.46
301.017	-60.46
301.148	-215.46
301.279	-321.46
301.411	-5.46
301.542	-84.46
301.673	-74.46
301.805	-5.46
301.936	-217.46
302.067	-161.46
302.199	-163.46
302.33	-268.46
302.461	337.54
302.593	21.54
302.724	-3.46
302.855	-296.46
302.987	-80.46
303.118	-269.46
303.249	-342.46
303.381	-137.46
303.512	-198.46
303.643	-194.46
303.775	123.54
303.906	-266.46
304.037	-268.46
304.169	-227.46
304.3	-137.46
304.431	-289.46
304.562	-224.46
304.694	-180.46
304.825	-71.46
304.956	112.54
305.087	-189.46
305.219	18.54
305.35	-99.46
305.481	-204.46
305.612	33.54
305.744	-6.46
305.875	-159.46
306.006	484.54
306.137	-212.46
306.269	-52.46
306.4	59.54
306.531	106.54
306.662	-133.46
306.794	121.54
306.925	-220.46
307.056	-272.46
307.187	-51.46
307.318	-129.46
307.45	-152.46
307.581	-231.46
307.712	-256.46
307.843	-72.46
307.974	-111.46
308.105	90.54
308.237	-81.46
308.368	-302.46
308.499	-170.46
308.63	-1.46
308.761	-125.46
308.892	-123.46
309.024	-159.46
309.155	-207.46
309.286	-214.46
309.417	-268.46
309.548	-157.46
309.679	-154.46
309.81	-397.46
309.941	444.54
310.073	-3.46
310.204	-316.46
310.335	-21.46
310.466	-185.46
310.597	-268.46
310.728	-170.46
310.859	330.54
310.99	336.54
311.121	-82.46
311.252	-108.46
311.383	-285.46
311.514	-13.46
311.646	-184.46
311.777	-58.46
311.908	-44.46
312.039	-142.46
312.17	-322.46
312.301	-143.46
312.432	-193.46
312.563	-318.46
312.694	-69.46
312.825	-173.46
312.956	-220.46
313.087	37.54
313.218	65.54
313.349	-133.46
313.48	-357.46
313.611	-121.46
313.742	-94.46
313.873	52.54
314.004	-77.46
314.135	-178.46
314.266	-64.46
314.397	-181.46
314.528	-291.46
314.659	-292.46
314.79	-232.46
314.921	55.54
315.052	4.54
315.183	-252.46
315.314	-286.46
315.445	78.54
315.576	-40.46
315.707	-139.46
315.838	-180.46
315.968	-47.46
316.099	-286.46
316.23	-328.46
316.361	73.54
316.492	-139.46
316.623	60.54
316.754	169.54
316.885	-397.46
317.016	-309.46
317.147	-369.46
317.278	56.54
317.408	-243.46
317.539	-290.46
317.67	-264.46
317.801	-63.46
317.932	-151.46
318.063	-213.46
318.194	-169.46
318.325	-4.46
318.455	-351.46
318.586	-151.46
318.717	-51.46
318.848	-322.46
318.979	68.54
319.11	257.54
319.24	28.54
319.371	26.54
319.502	-106.46
319.633	-197.46
319.764	-117.46
319.895	-267.46
320.025	-63.46
320.156	-329.46
320.287	-424.46
320.418	-239.46
320.549	-87.46
320.679	-344.46
320.81	110.54
320.941	-376.46
321.072	-320.46
321.202	-39.46
321.333	250.54
321.464	-378.46
321.595	-230.46
321.726	246.54
321.856	-374.46
321.987	-148.46
322.118	-243.46
322.249	-11.46
322.379	-56.46
322.51	-28.46
322.641	-71.46
322.771	-306.46
322.902	-78.46
323.033	-123.46
323.164	684.54
323.294	-180.46
323.425	-222.46
323.556	-197.46
323.686	-115.46
323.817	274.54
323.948	-47.46
324.078	-147.46
324.209	152.54
324.34	-188.46
324.47	173.54
324.601	-218.46
324.732	-44.46
324.862	18.54
324.993	-256.46
325.124	-438.46
325.254	-67.46
325.385	-72.46
325.516	482.54
325.646	379.54
325.777	-183.46
325.908	-163.46
326.038	44.54
326.169	-134.46
326.299	-57.46
326.43	133.54
326.561	-151.46
326.691	-139.46
326.822	-285.46
326.952	-192.46
327.083	-27.46
327.214	-255.46
327.344	-72.46
327.475	-13.46
327.605	-45.46
327.736	-156.46
327.867	-292.46
327.997	-154.46
328.128	-15.46
328.258	-342.46
328.389	212.54
328.519	-301.46
328.65	36.54
328.78	-229.46
328.911	-48.46
329.041	88.54
329.172	-333.46
329.303	-206.46
329.433	-181.46
329.564	-267.46
329.694	-228.46
329.825	-215.46
329.955	-34.46
330.086	450.54
330.216	-176.46
330.347	-305.46
330.477	-107.46
330.608	-134.46
330.738	-119.46
330.868	-352.46
330.999	-189.46
331.129	108.54
331.26	-244.46
331.39	-211.46
331.521	117.54
331.651	29.54
331.782	-377.46
331.912	-274.46
332.043	-284.46
332.173	46.54
332.303	-341.46
332.434	100.54
332.564	-9.46
332.695	-199.46
332.825	-349.46
332.956	-184.46
333.086	-121.46
333.216	-256.46
333.347	-55.46
333.477	-417.46
333.608	-122.46
333.738	-17.46
333.868	-162.46
333.999	-52.46
334.129	91.54
334.259	-83.46
334.39	-218.46
334.52	38.54
334.65	-200.46
334.781	114.54
334.911	-221.46
335.042	-269.46
335.172	-15.46
335.302	-146.46
335.433	267.54
335.563	-281.46
335.693	-22.46
335.824	264.54
335.954	-386.46
336.084	-32.46
336.214	-14.46
336.345	307.54
336.475	95.54
336.605	-239.46
336.736	290.54
336.866	-126.46
336.996	-153.46
337.126	-280.46
337.257	-59.46
337.387	-347.46
337.517	-247.46
337.648	-326.46
337.778	146.54
337.908	75.54
338.038	-0.46
338.169	-168.46
338.299	229.54
338.429	-40.46
338.559	-249.46
338.69	-187.46
338.82	374.54
338.95	-14.46
339.08	-438.46
339.21	-300.46
339.341	-123.46
339.471	8.54
339.601	-106.46
339.731	-50.46
339.861	-173.46
339.992	-141.46
340.122	-156.46
340.252	-226.46
340.382	-204.46
340.512	-98.46
340.642	154.54
340.773	-66.46
340.903	-310.46
341.033	-84.46
341.163	-25.46
341.293	91.54
341.423	-213.46
341.554	-312.46
341.684	-18.46
341.814	-147.46
341.944	-170.46
342.074	-102.46
342.204	-172.46
342.334	173.54
342.464	-275.46
342.595	-160.46
342.725	-315.46
342.855	-64.46
342.985	-176.46
343.115	-271.46
343.245	-349.46
343.375	23.54
343.505	-124.46
343.635	-33.46
343.765	-226.46
343.895	-376.46
344.025	24.54
344.155	-280.46
344.286	-168.46
344.416	-83.46
344.546	106.54
344.676	-98.46
344.806	162.54
344.936	-64.46
345.066	183.54
345.196	-254.46
345.326	-331.46
345.456	85.54
345.586	-262.46
345.716	-267.46
345.846	2.54
345.976	-375.46
346.106	-90.46
346.236	66.54
346.366	30.54
346.496	-184.46
346.626	-172.46
346.756	-205.46
346.886	-257.46
347.016	-345.46
347.146	-223.46
347.276	-257.46
347.406	-230.46
347.536	-53.46
347.666	140.54
347.795	-246.46
347.925	-180.46
348.055	87.54
348.185	-164.46
348.315	-185.46
348.445	65.54
348.575	-184.46
348.705	-270.46
348.835	-259.46
348.965	-161.46
349.095	-11.46
349.225	250.54
349.354	-255.46
349.484	-183.46
349.614	-162.46
349.744	-239.46
349.874	-267.46
350.004	-337.46
350.134	-286.46
350.264	-309.46
350.393	-311.46
350.523	131.54
350.653	-342.46
350.783	39.54
350.913	153.54
351.043	-231.46
351.173	-193.46
351.302	-30.46
351.432	208.54
351.562	-102.46
351.692	-81.46
351.822	-179.46
351.951	-374.46
352.081	184.54
352.211	-120.46
352.341	152.54
352.471	131.54
352.6	-147.46
352.73	-214.46
352.86	-159.46
352.99	-2.46
353.12	-93.46
353.249	-33.46
353.379	-263.46
353.509	44.54
353.639	-286.46
353.768	-101.46
353.898	-215.46
354.028	-298.46
354.158	-170.46
354.287	-223.46
354.417	-284.46
354.547	-246.46
354.677	-359.46
354.806	-112.46
354.936	-11.46
355.066	-209.46
355.195	-29.46
355.325	-44.46
355.455	-256.46
355.584	170.54
355.714	-232.46
355.844	143.54
355.974	0.54
356.103	-132.46
356.233	-168.46
356.363	37.54
356.492	-258.46
356.622	-298.46
356.752	-53.46
356.881	-373.46
357.011	46.54
357.14	78.54
357.27	-177.46
357.4	83.54
357.529	-147.46
357.659	115.54
357.789	-4.46
357.918	-299.46
358.048	-327.46
358.177	-142.46
358.307	-265.46
358.437	-66.46
358.566	-247.46
358.696	42.54
358.825	107.54
358.955	-303.46
359.085	12.54
359.214	-410.46
359.344	-120.46
359.473	-285.46
359.603	-148.46
359.733	-229.46
359.862	-337.46
359.992	58.54
360.121	-184.46
360.251	20.54
360.38	-351.46
360.51	89.54
360.639	-173.46
360.769	-76.46
360.898	57.54
361.028	52.54
361.157	-78.46
361.287	-46.46
361.416	-299.46
361.546	-145.46
361.675	-134.46
361.805	-187.46
361.934	-7.46
362.064	-153.46
362.193	-216.46
362.323	-292.46
362.452	81.54
362.582	-259.46
362.711	-170.46
362.841	0.54
362.97	-32.46
363.1	-274.46
363.229	-300.46
363.359	-164.46
363.488	-236.46
363.617	-107.46
363.747	-119.46
363.876	-380.46
364.006	-38.46
364.135	-100.46
364.265	-147.46
364.394	-201.46
364.523	277.54
364.653	-271.46
364.782	-41.46
364.912	-275.46
365.041	-282.46
365.17	-291.46
365.3	-66.46
365.429	161.54
365.558	-167.46
365.688	-246.46
365.817	-293.46
365.947	-57.46
366.076	-63.46
366.205	-104.46
366.335	-373.46
366.464	-266.46
366.593	92.54
366.723	-171.46
366.852	-90.46
366.981	-87.46
367.111	-273.46
367.24	-174.46
367.369	-149.46
367.499	515.54
367.628	103.54
367.757	-156.46
367.886	-48.46
368.016	67.54
368.145	-121.46
368.274	-92.46
368.404	-320.46
368.533	-108.46
368.662	-0.46
368.791	-199.46
368.921	-391.46
369.05	113.54
369.179	-66.46
369.308	302.54
369.438	-315.46
369.567	-363.46
369.696	-147.46
369.825	-1.46
369.955	-158.46
370.084	-38.46
370.213	-107.46
370.342	-313.46
370.472	-306.46
370.601	396.54
370.73	8.54
370.859	-436.46
370.988	-180.46
371.118	-305.46
371.247	20.54
371.376	67.54
371.505	-91.46
371.634	-67.46
371.763	-81.46
371.893	-234.46
372.022	-178.46
372.151	-238.46
372.28	-351.46
372.409	-394.46
372.538	-186.46
372.667	-64.46
372.797	68.54
372.926	-350.46
373.055	-65.46
373.184	-116.46
373.313	-215.46
373.442	-65.46
373.571	-228.46
373.7	-130.46
373.83	-69.46
373.959	-431.46
374.088	-176.46
374.217	80.54
374.346	-188.46
374.475	-369.46
374.604	-249.46
374.733	242.54
374.862	-137.46
374.991	-269.46
375.12	-52.46
375.249	-66.46
375.378	-255.46
375.508	-338.46
375.637	-330.46
375.766	50.54
375.895	-215.46
376.024	117.54
376.153	-251.46
376.282	-121.46
376.411	-238.46
376.54	-468.46
376.669	-78.46
376.798	-180.46
376.927	-282.46
377.056	70.54
377.185	-73.46
377.314	68.54
377.443	239.54
377.572	-280.46
377.701	-291.46
377.83	132.54
377.959	-12.46
378.088	1699.54
378.217	109.54
378.346	-203.46
378.474	-378.46
378.603	-271.46
378.732	-77.46
378.861	-210.46
378.99	-273.46
379.119	-375.46
379.248	-104.46
379.377	-175.46
379.506	-200.46
379.635	114.54
379.764	-74.46
379.893	-242.46
380.022	-342.46
380.15	-93.46
380.279	-362.46
380.408	-249.46
380.537	-195.46
380.666	-12.46
380.795	-64.46
380.924	-183.46
381.053	-258.46
381.181	-67.46
381.31	747.54
381.439	-266.46
381.568	-153.46
381.697	-196.46
381.826	-144.46
381.955	-282.46
382.083	-106.46
382.212	-331.46
382.341	31.54
382.47	-237.46
382.599	-166.46
382.727	231.54
382.856	-39.46
382.985	-16.46
383.114	-167.46
383.243	-226.46
383.371	-141.46
383.5	-248.46
383.629	-261.46
383.758	-268.46
383.887	-425.46
384.015	-86.46
384.144	-292.46
384.273	-124.46
384.402	-70.46
384.53	-262.46
384.659	-271.46
384.788	-273.46
384.917	-260.46
385.045	-111.46
385.174	-168.46
385.303	-412.46
385.432	16.54
385.56	-105.46
385.689	-175.46
385.818	-54.46
385.946	-38.46
386.075	-265.46
386.204	-280.46
386.332	-132.46
386.461	44.54
386.59	22.54
386.718	-316.46
386.847	-188.46
386.976	-161.46
387.104	-382.46
387.233	-326.46
387.362	-90.46
387.49	-115.46
387.619	-281.46
387.748	-142.46
387.876	125.54
388.005	-81.46
388.134	89.54
388.262	-311.46
388.391	-241.46
388.52	-32.46
388.648	-304.46
388.777	57.54
388.905	-267.46
389.034	-172.46
389.163	-286.46
389.291	-149.46
389.42	12.54
389.548	36.54
389.677	-152.46
389.805	-101.46
389.934	-35.46
390.063	-297.46
390.191	-369.46
390.32	-252.46
390.448	-190.46
390.577	-332.46
390.705	-313.46
390.834	-157.46
390.962	-316.46
391.091	-266.46
391.22	90.54
391.348	171.54
391.477	-12.46
391.605	-333.46
391.734	-199.46
391.862	-236.46
391.991	-330.46
392.119	-292.46
392.248	-147.46
392.376	-114.46
392.505	-165.46
392.633	-210.46
392.762	294.54
392.89	-296.46
393.018	37.54
393.147	-209.46
393.275	-364.46
393.404	-305.46
393.532	-197.46
393.661	-106.46
393.789	-84.46
393.918	-134.46
394.046	-156.46
394.174	-105.46
394.303	-326.46
394.431	-222.46
394.56	37.54
394.688	-365.46
394.817	-385.46
394.945	94.54
395.073	46.54
395.202	-69.46
395.33	-173.46
395.459	-162.46
395.587	69.54
395.715	52.54
395.844	-115.46
395.972	-414.46
396.1	68.54
396.229	-279.46
396.357	-93.46
396.485	-215.46
396.614	-245.46
396.742	68.54
396.87	-122.46
396.999	-33.46
397.127	-326.46
397.255	-60.46
397.384	51.54
397.512	-369.46
397.64	-308.46
397.769	-158.46
397.897	-46.46
398.025	-173.46
398.154	-111.46
398.282	209.54
398.41	-100.46
398.538	-89.46
398.667	-214.46
398.795	-245.46
398.923	-6.46
399.052	-208.46
399.18	-160.46
399.308	-167.46
399.436	178.54
399.565	-302.46
399.693	-62.46
399.821	-125.46
399.949	-210.46
400.078	292.54
400.206	-328.46
400.334	-317.46
400.462	-141.46
400.59	-364.46
400.719	-225.46
400.847	-279.46
400.975	-48.46
401.103	-251.46
401.231	-96.46
401.36	-126.46
401.488	-42.46
401.616	-214.46
401.744	-161.46
401.872	-225.46
402	-20.46
402.129	-217.46
402.257	-285.46
402.385	-174.46
402.513	-163.46
402.641	-170.46
402.769	-149.46
402.897	-252.46
403.026	-334.46
403.154	-394.46
403.282	-337.46
403.41	-221.46
403.538	154.54
403.666	-353.46
403.794	-165.46
403.922	-103.46
404.05	-93.46
404.179	-141.46
404.307	-85.46
404.435	-300.46
404.563	-294.46
404.691	-379.46
404.819	422.54
404.947	-307.46
405.075	-234.46
405.203	-342.46
405.331	-250.46
405.459	-304.46
405.587	-84.46
405.715	-266.46
405.843	-199.46
405.971	-83.46
406.099	159.54
406.227	-34.46
406.355	-142.46
406.483	-401.46
406.611	-63.46
406.739	-303.46
406.867	-311.46
406.995	-231.46
407.123	-177.46
407.251	-418.46
407.379	-343.46
407.507	-107.46
407.635	-159.46
407.763	-419.46
407.891	-425.46
408.019	-21.46
408.147	18.54
408.275	170.54
408.403	-353.46
408.531	-381.46
408.659	182.54
408.787	-120.46
408.915	-237.46
409.043	-231.46
409.171	67.54
409.299	20.54
409.427	63.54
409.554	-346.46
409.682	262.54
409.81	-95.46
409.938	-223.46
410.066	22.54
410.194	-74.46
410.322	-294.46
410.45	-193.46
410.578	-365.46
410.705	-282.46
410.833	-111.46
410.961	77.54
411.089	318.54
411.217	-139.46
411.345	-165.46
411.473	-262.46
411.6	-100.46
411.728	-176.46
411.856	-361.46
411.984	-302.46
412.112	-92.46
412.239	-77.46
412.367	-226.46
412.495	79.54
412.623	-264.46
412.751	0.54
412.878	-374.46
413.006	-188.46
413.134	83.54
413.262	177.54
413.39	-29.46
413.517	-69.46
413.645	49.54
413.773	-346.46
413.901	198.54
414.028	-190.46
414.156	-141.46
414.284	-269.46
414.412	47.54
414.539	-206.46
414.667	-220.46
414.795	-253.46
414.923	-400.46
415.05	-191.46
415.178	-43.46
415.306	307.54
415.433	-231.46
415.561	40.54
415.689	37.54
415.816	-257.46
415.944	187.54
416.072	-324.46
416.2	-7.46
416.327	252.54
416.455	-290.46
416.583	-215.46
416.71	-247.46
416.838	142.54
416.966	-332.46
417.093	-166.46
417.221	37.54
417.348	-75.46
417.476	-341.46
417.604	-208.46
417.731	-157.46
417.859	39.54
417.987	-107.46
418.114	-269.46
418.242	41.54
418.369	-237.46
418.497	-326.46
418.625	137.54
418.752	-129.46
418.88	-292.46
419.007	171.54
419.135	-67.46
419.263	-246.46
419.39	31.54
419.518	61.54
419.645	31.54
419.773	590.54
419.9	1729.54
420.028	4251.54
420.155	5001.54
420.283	7023.54
420.41	7997.54
420.538	8767.54
420.666	9494.54
420.793	9672.54
420.921	8663.54
421.048	6957.54
421.176	4653.54
421.303	2403.54
421.431	661.54
421.558	-62.46
421.686	256.54
421.813	42.54
421.941	-181.46
422.068	-64.46
422.195	81.54
422.323	41.54
422.45	-354.46
422.578	-84.46
422.705	-211.46
422.833	-150.46
422.96	-268.46
423.088	0.54
423.215	367.54
423.343	288.54
423.47	-83.46
423.597	212.54
423.725	-157.46
423.852	-135.46
423.98	-68.46
424.107	-371.46
424.234	-139.46
424.362	-208.46
424.489	-258.46
424.617	511.54
424.744	1.54
424.871	-295.46
424.999	-154.46
425.126	100.54
425.253	-56.46
425.381	-194.46
425.508	-316.46
425.636	21.54
425.763	-190.46
425.89	-211.46
426.018	-343.46
426.145	-160.46
426.272	-74.46
426.4	25.54
426.527	62.54
426.654	-313.46
426.781	-67.46
426.909	-70.46
427.036	-110.46
427.163	-399.46
427.291	-293.46
427.418	-196.46
427.545	-140.46
427.673	-334.46
427.8	-378.46
427.927	-309.46
428.054	-71.46
428.182	-182.46
428.309	-196.46
428.436	-254.46
428.563	-320.46
428.691	-51.46
428.818	-236.46
428.945	-4.46
429.072	-331.46
429.2	-67.46
429.327	-56.46
429.454	33.54
429.581	-139.46
429.708	-381.46
429.836	-263.46
429.963	-218.46
430.09	-244.46
430.217	-247.46
430.344	-301.46
430.472	-297.46
430.599	-8.46
430.726	-244.46
430.853	-169.46
430.98	-23.46
431.107	-295.46
431.235	-135.46
431.362	-32.46
431.489	-178.46
431.616	222.54
431.743	68.54
431.87	-354.46
431.997	-193.46
432.125	-116.46
432.252	-453.46
432.379	-192.46
432.506	-44.46
432.633	-253.46
432.76	-147.46
432.887	99.54
433.014	-198.46
433.141	-281.46
433.268	-63.46
433.395	-269.46
433.523	-193.46
433.65	-204.46
433.777	-208.46
433.904	-200.46
434.031	-388.46
434.158	-111.46
434.285	23.54
434.412	-388.46
434.539	-146.46
434.666	-339.46
434.793	-242.46
434.92	-304.46
435.047	-14.46
435.174	-158.46
435.301	-15.46
435.428	263.54
435.555	175.54
435.682	-75.46
435.809	-315.46
435.936	102.54
436.063	-287.46
436.19	107.54
436.317	-251.46
436.444	-2.46
436.571	-279.46
436.698	-28.46
436.825	73.54
436.952	-52.46
437.079	-54.46
437.206	-45.46
437.333	-289.46
437.46	-197.46
437.587	-105.46
437.714	-321.46
437.84	-163.46
437.967	-378.46
438.094	-367.46
438.221	70.54
438.348	-170.46
438.475	7951.54
438.602	-325.46
438.729	-399.46
438.856	-281.46
438.983	-330.46
439.109	-33.46
439.236	44.54
439.363	-452.46
439.49	-257.46
439.617	-125.46
439.744	-277.46
439.871	386.54
439.997	-260.46
440.124	-84.46
440.251	-75.46
440.378	-245.46
440.505	-219.46
440.632	69.54
440.758	144.54
440.885	233.54
441.012	-268.46
441.139	33.54
441.266	-337.46
441.392	-225.46
441.519	-313.46
441.646	-351.46
441.773	-76.46
441.9	206.54
442.026	-217.46
442.153	-124.46
442.28	-79.46
442.407	-293.46
442.533	40.54
442.66	-52.46
442.787	-109.46
442.914	-267.46
443.04	-223.46
443.167	-168.46
443.294	-133.46
443.421	-75.46
443.547	-339.46
443.674	-161.46
443.801	-56.46
443.927	99.54
444.054	398.54
444.181	80.54
444.307	59.54
444.434	-114.46
444.561	-320.46
444.688	-367.46
444.814	19.54
444.941	-214.46
445.068	-322.46
445.194	198.54
445.321	-280.46
445.447	180.54
445.574	-369.46
445.701	-363.46
445.827	-191.46
445.954	-413.46
446.081	-16.46
446.207	-332.46
446.334	-148.46
446.461	-208.46
446.587	-426.46
446.714	-27.46
446.84	48.54
446.967	-259.46
447.094	-206.46
447.22	65.54
447.347	-154.46
447.473	-292.46
447.6	-95.46
447.726	-386.46
447.853	-90.46
447.98	-185.46
448.106	-98.46
448.233	-122.46
448.359	-223.46
448.486	-67.46
448.612	-234.46
448.739	-49.46
448.865	69.54
448.992	231.54
449.118	-223.46
449.245	-348.46
449.371	-316.46
449.498	-139.46
449.624	-16.46
449.751	-124.46
449.877	-243.46
450.004	-129.46
450.13	-139.46
450.257	-325.46
450.383	-159.46
450.51	-378.46
450.636	-251.46
450.763	-223.46
450.889	-248.46
451.016	-445.46
451.142	-88.46
451.269	-267.46
451.395	260.54
451.521	-169.46
451.648	-276.46
451.774	-101.46
451.901	-407.46
452.027	-169.46
452.154	63.54
452.28	-184.46
452.406	-271.46
452.533	-266.46
452.659	-325.46
452.785	-207.46
452.912	-325.46
453.038	-316.46
453.165	-25.46
453.291	97.54
453.417	166.54
453.544	-336.46
453.67	-229.46
453.796	107.54
453.923	-318.46
454.049	-264.46
454.175	-269.46
454.302	-269.46
454.428	-56.46
454.554	-108.46
454.681	-265.46
454.807	-271.46
454.933	270.54
455.06	-96.46
455.186	-184.46
455.312	95.54
455.439	34.54
455.565	-340.46
455.691	-329.46
455.817	-5.46
455.944	72.54
456.07	-164.46
456.196	-60.46
456.322	-389.46
456.449	-374.46
456.575	-166.46
456.701	-270.46
456.827	-273.46
456.954	-342.46
457.08	-292.46
457.206	-426.46
457.332	-131.46
457.459	-372.46
457.585	-318.46
457.711	-274.46
457.837	-42.46
457.963	-135.46
458.09	-315.46
458.216	-344.46
458.342	-184.46
458.468	-195.46
458.594	-172.46
458.721	-117.46
458.847	-100.46
458.973	-348.46
459.099	-175.46
459.225	-187.46
459.351	-230.46
459.477	-77.46
459.604	-346.46
459.73	-241.46
459.856	-324.46
459.982	-129.46
460.108	-409.46
460.234	-453.46
460.36	-159.46
460.486	-34.46
460.613	-316.46
460.739	80.54
460.865	-230.46
460.991	206.54
461.117	178.54
461.243	-281.46
461.369	-324.46
461.495	-236.46
461.621	-178.46
461.747	-66.46
461.873	-46.46
461.999	-311.46
462.125	-182.46
462.252	39.54
462.378	-125.46
462.504	-50.46
462.63	-124.46
462.756	-339.46
462.882	-198.46
463.008	-197.46
463.134	69.54
463.26	-367.46
463.386	-242.46
463.512	-117.46
463.638	-243.46
463.764	-349.46
463.89	-205.46
464.016	61.54
464.142	-14.46
464.268	-334.46
464.394	-198.46
464.52	-366.46
464.645	-91.46
464.771	5.54
464.897	-245.46
465.023	-245.46
465.149	-127.46
465.275	-341.46
465.401	-322.46
465.527	75.54
465.653	-137.46
465.779	48.54
465.905	-343.46
466.031	-136.46
466.157	-275.46
466.282	-200.46
466.408	-267.46
466.534	-140.46
466.66	-437.46
466.786	-204.46
466.912	-134.46
467.038	-169.46
467.164	-211.46
467.289	-263.46
467.415	-178.46
467.541	-172.46
467.667	-175.46
467.793	-213.46
467.919	-106.46
468.045	139.54
468.17	-285.46
468.296	-157.46
468.422	-222.46
468.548	18.54
468.674	-392.46
468.799	-282.46
468.925	-258.46
469.051	-299.46
469.177	-405.46
469.303	-398.46
469.428	-0.46
469.554	-257.46
469.68	-267.46
469.806	-107.46
469.931	-146.46
470.057	374.54
470.183	-471.46
470.309	-246.46
470.434	129.54
470.56	-168.46
470.686	-119.46
470.812	-160.46
470.937	-308.46
471.063	-286.46
471.189	-88.46
471.315	17.54
471.44	-139.46
471.566	-186.46
471.692	52.54
471.817	-267.46
471.943	-146.46
472.069	-61.46
472.194	-214.46
472.32	-269.46
472.446	-31.46
472.571	-289.46
472.697	-293.46
472.823	-140.46
472.948	-355.46
473.074	-131.46
473.2	-205.46
473.325	-354.46
473.451	-211.46
473.577	-210.46
473.702	-435.46
473.828	-193.46
473.953	-370.46
474.079	-143.46
474.205	-354.46
474.33	-328.46
474.456	-236.46
474.581	213.54
474.707	-296.46
474.833	-244.46
474.958	-65.46
475.084	-4.46
475.209	-262.46
475.335	-283.46
475.46	-93.46
475.586	-217.46
475.712	-62.46
475.837	-217.46
475.963	-225.46
476.088	-415.46
476.214	-314.46
476.339	-246.46
476.465	-276.46
476.59	-358.46
476.716	87.54
476.841	-339.46
476.967	208.54
477.092	-225.46
477.218	-126.46
477.343	-324.46
477.469	231.54
477.594	-225.46
477.72	-344.46
477.845	-149.46
477.971	-248.46
478.096	-127.46
478.222	-212.46
478.347	3254.54
478.472	9.54
478.598	-264.46
478.723	-259.46
478.849	-30.46
478.974	-91.46
479.1	-340.46
479.225	-114.46
479.35	-253.46
479.476	-54.46
479.601	-290.46
479.727	55.54
479.852	-302.46
479.977	-137.46
480.103	-178.46
480.228	159.54
480.354	-208.46
480.479	28.54
480.604	-260.46
480.73	-300.46
480.855	-426.46
480.98	34.54
481.106	-367.46
481.231	-408.46
481.356	-322.46
481.482	-430.46
481.607	-337.46
481.732	-499.46
481.858	-217.46
481.983	-311.46
482.108	-283.46
482.234	-433.46
482.359	-260.46
482.484	99.54
482.61	-304.46
482.735	-142.46
482.86	-399.46
482.985	-245.46
483.111	-189.46
483.236	-63.46
483.361	-229.46
483.486	-328.46
483.612	38.54
483.737	-438.46
483.862	-172.46
483.987	-79.46
484.113	-415.46
484.238	-68.46
484.363	-367.46
484.488	-248.46
484.614	-35.46
484.739	-219.46
484.864	31.54
484.989	410.54
485.114	-97.46
485.24	-218.46
485.365	-225.46
485.49	-397.46
485.615	-40.46
485.74	-190.46
485.865	-105.46
485.991	-111.46
486.116	-81.46
486.241	-381.46
486.366	-371.46
486.491	-61.46
486.616	-272.46
486.742	-210.46
486.867	-204.46
486.992	-346.46
487.117	-312.46
487.242	-317.46
487.367	-443.46
487.492	-188.46
487.617	-48.46
487.742	-148.46
487.868	-308.46
487.993	-54.46
488.118	-104.46
488.243	-128.46
488.368	-276.46
488.493	-414.46
488.618	-250.46
488.743	-266.46
488.868	-306.46
488.993	-209.46
489.118	-9.46
489.243	-185.46
489.368	-282.46
489.493	-18.46
489.618	-171.46
489.743	-326.46
489.868	-187.46
489.993	-259.46
490.118	-433.46
490.243	382.54
490.368	-267.46
490.493	-53.46
490.618	12.54
490.743	-427.46
490.868	-141.46
490.993	-167.46
491.118	-14.46
491.243	-310.46
491.368	-150.46
491.493	-21.46
491.618	-163.46
491.743	-220.46
491.868	-287.46
491.993	-214.46
492.118	-293.46
492.243	-166.46
492.368	-61.46
492.493	-290.46
492.618	132.54
492.743	-255.46
492.867	42.54
492.992	-154.46
493.117	-27.46
493.242	-266.46
493.367	-187.46
493.492	36.54
493.617	-276.46
493.742	82.54
493.867	-225.46
493.991	-375.46
494.116	-175.46
494.241	-134.46
494.366	-212.46
494.491	-63.46
494.616	29.54
494.74	-310.46
494.865	-394.46
494.99	-274.46
495.115	-224.46
495.24	-166.46
495.365	-275.46
495.489	-243.46
495.614	-139.46
495.739	-245.46
495.864	-246.46
495.989	-424.46
496.113	-11.46
496.238	-142.46
496.363	-287.46
496.488	-323.46
496.612	-7.46
496.737	-254.46
496.862	-230.46
496.987	-251.46
497.111	-343.46
497.236	-326.46
497.361	-307.46
497.486	92.54
497.61	-13.46
497.735	-196.46
497.86	-60.46
497.984	-64.46
498.109	-388.46
498.234	-278.46
498.359	-260.46
498.483	-169.46
498.608	-158.46
498.733	-265.46
498.857	-336.46
498.982	-170.46
499.107	-403.46
499.231	-173.46
499.356	-218.46
499.481	89.54
499.605	-498.46
499.73	-362.46
499.855	31.54
499.979	-314.46
500.104	-200.46
500.228	125.54
500.353	-215.46
500.478	-356.46
500.602	-148.46
500.727	96.54
500.852	-89.46
500.976	-443.46
501.101	-243.46
501.225	141.54
501.35	-324.46
501.474	-299.46
501.599	20.54
501.724	-214.46
501.848	-213.46
501.973	90.54
502.097	-360.46
502.222	-412.46
502.346	-27.46
502.471	-151.46
502.595	-290.46
502.72	-344.46
502.844	-338.46
502.969	-214.46
503.094	87.54
503.218	-388.46
503.343	-292.46
503.467	-302.46
503.592	-217.46
503.716	-260.46
503.841	-104.46
503.965	180.54
504.089	-206.46
504.214	-368.46
504.338	-223.46
504.463	-18.46
504.587	-131.46
504.712	-131.46
504.836	-162.46
504.961	236.54
505.085	66.54
505.21	-292.46
505.334	-265.46
505.458	219.54
505.583	-389.46
505.707	-85.46
505.832	-252.46
505.956	-164.46
506.08	-295.46
506.205	-280.46
506.329	74.54
506.454	-393.46
506.578	-158.46
506.702	-283.46
506.827	110.54
506.951	-63.46
507.076	-172.46
507.2	-361.46
507.324	-61.46
507.449	43.54
507.573	-158.46
507.697	-266.46
507.822	-152.46
507.946	-218.46
508.07	-409.46
508.195	-198.46
508.319	-220.46
508.443	-151.46
508.567	-425.46
508.692	-358.46
508.816	-351.46
508.94	-194.46
509.065	-441.46
509.189	-54.46
509.313	-63.46
509.437	-23.46
509.562	-240.46
509.686	-150.46
509.81	-222.46
509.935	-124.46
510.059	46.54
510.183	-314.46
510.307	-368.46
510.431	-2.46
510.556	-182.46
510.68	-243.46
510.804	-403.46
510.928	-183.46
511.053	-365.46
511.177	-376.46
511.301	-190.46
511.425	-281.46
511.549	-183.46
511.674	-150.46
511.798	-189.46
511.922	-81.46
512.046	123.54
512.17	-221.46
512.294	-346.46
512.419	-118.46
512.543	-72.46
512.667	-247.46
512.791	-302.46
512.915	-96.46
513.039	-215.46
513.163	-82.46
513.288	115.54
513.412	-217.46
513.536	55.54
513.66	-307.46
513.784	-200.46
513.908	-117.46
514.032	-167.46
514.156	-16.46
514.28	-17.46
514.404	-199.46
514.528	-213.46
514.653	-63.46
514.777	0.54
514.901	-80.46
515.025	98.54
515.149	-224.46
515.273	-135.46
515.397	-206.46
515.521	-181.46
515.645	-191.46
515.769	-331.46
515.893	-260.46
516.017	-263.46
516.141	-433.46
516.265	-243.46
516.389	-310.46
516.513	-175.46
516.637	-282.46
516.761	-476.46
516.885	-303.46
517.009	-219.46
517.133	-103.46
517.257	-266.46
517.381	-25.46
517.505	-6.46
517.629	76.54
517.753	-208.46
517.877	-367.46
518.001	-272.46
518.125	-242.46
518.248	-68.46
518.372	-165.46
518.496	-357.46
518.62	-99.46
518.744	-176.46
518.868	-110.46
518.992	-151.46
519.116	-346.46
519.24	409.54
519.364	6.54
519.488	-173.46
519.611	-400.46
519.735	-208.46
519.859	-199.46
519.983	-55.46
520.107	-247.46
520.231	-6.46
520.355	-177.46
520.478	-298.46
520.602	-316.46
520.726	66.54
520.85	-231.46
520.974	-1.46
521.098	-290.46
521.221	-352.46
521.345	56.54
521.469	-290.46
521.593	-199.46
521.717	28.54
521.84	-171.46
521.964	-290.46
522.088	-257.46
522.212	-199.46
522.335	-372.46
522.459	-288.46
522.583	187.54
522.707	-359.46
522.83	-412.46
522.954	-311.46
523.078	-300.46
523.202	-7.46
523.325	-262.46
523.449	-207.46
523.573	-194.46
523.697	-302.46
523.82	-198.46
523.944	-219.46
524.068	-206.46
524.191	-234.46
524.315	-393.46
524.439	-144.46
524.562	-52.46
524.686	-246.46
524.81	-323.46
524.933	-254.46
525.057	-267.46
525.181	-135.46
525.304	-385.46
525.428	70.54
525.552	-366.46
525.675	-176.46
525.799	-321.46
525.923	-143.46
526.046	-70.46
526.17	-443.46
526.293	-322.46
526.417	-140.46
526.541	-11.46
526.664	-251.46
526.788	-231.46
526.911	-74.46
527.035	-362.46
527.159	-255.46
527.282	-256.46
527.406	-284.46
527.529	-56.46
527.653	-370.46
527.776	-106.46
527.9	-253.46
528.024	-294.46
528.147	-255.46
528.271	15.54
528.394	11.54
528.518	26.54
528.641	-361.46
528.765	-132.46
528.888	-187.46
529.012	-136.46
529.135	-251.46
529.259	84.54
529.382	-218.46
529.506	-319.46
529.629	-121.46
529.753	-400.46
529.876	128.54
530	31.54
530.123	-160.46
530.247	-335.46
530.37	-257.46
530.493	-156.46
530.617	-308.46
530.74	27.54
530.864	-71.46
530.987	-390.46
531.111	-102.46
531.234	-297.46
531.357	24.54
531.481	-12.46
531.604	-4.46
531.728	-377.46
531.851	-123.46
531.974	-133.46
532.098	-259.46
532.221	-302.46
532.345	-203.46
532.468	-366.46
532.591	177.54
532.715	-218.46
532.838	-241.46
532.961	-224.46
533.085	-314.46
533.208	-157.46
533.331	-427.46
533.455	-26.46
533.578	-245.46
533.701	-108.46
533.825	15.54
533.948	-284.46
534.071	-241.46
534.195	-61.46
534.318	-338.46
534.441	-263.46
534.564	-56.46
534.688	-294.46
534.811	-36.46
534.934	-213.46
535.058	-105.46
535.181	56.54
535.304	-58.46
535.427	-299.46
535.551	-355.46
535.674	-221.46
535.797	-62.46
535.92	-44.46
536.043	-373.46
536.167	-364.46
536.29	-84.46
536.413	-113.46
536.536	-320.46
536.66	-277.46
536.783	-119.46
536.906	-199.46
537.029	-290.46
537.152	-262.46
537.275	-188.46
537.399	75.54
537.522	-420.46
537.645	-224.46
537.768	-244.46
537.891	-122.46
538.014	-192.46
538.138	-266.46
538.261	-247.46
538.384	-165.46
538.507	-366.46
538.63	-244.46
538.753	125.54
538.876	-129.46
538.999	-327.46
539.123	-86.46
539.246	184.54
539.369	222.54
539.492	-273.46
539.615	-339.46
539.738	178.54
539.861	-258.46
539.984	-174.46
540.107	-122.46
540.23	-247.46
540.353	-309.46
540.476	-491.46
540.599	-102.46
540.722	-340.46
540.846	-128.46
540.969	-430.46
541.092	-148.46
541.215	-343.46
541.338	-136.46
541.461	-364.46
541.584	-194.46
541.707	-188.46
541.83	-316.46
541.953	-128.46
542.076	-106.46
542.199	-150.46
542.322	44.54
542.445	117.54
542.567	-244.46
542.69	-128.46
542.813	-286.46
542.936	-73.46
543.059	-157.46
543.182	247.54
543.305	54.54
543.428	-152.46
543.551	-208.46
543.674	84.54
543.797	-43.46
543.92	-211.46
544.043	246.54
544.166	-304.46
544.288	-205.46
544.411	-95.46
544.534	-300.46
544.657	-135.46
544.78	-239.46
544.903	-63.46
545.026	-190.46
545.149	-322.46
545.271	-340.46
545.394	-263.46
545.517	-389.46
545.64	362.54
545.763	-205.46
545.886	-293.46
546.008	-128.46
546.131	-3.46
546.254	-203.46
546.377	-404.46
546.5	-65.46
546.623	-63.46
546.745	-349.46
546.868	-195.46
546.991	36.54
547.114	-169.46
547.236	-179.46
547.359	-346.46
547.482	-138.46
547.605	-265.46
547.728	-253.46
547.85	-358.46
547.973	-302.46
548.096	-220.46
548.219	-99.46
548.341	-216.46
548.464	-376.46
548.587	-178.46
548.709	-223.46
548.832	-131.46
548.955	235.54
549.078	-12.46
549.2	-308.46
549.323	-220.46
549.446	167.54
549.568	-166.46
549.691	-93.46
549.814	-58.46
549.936	-287.46
550.059	-203.46
550.182	-359.46
550.304	-402.46
550.427	-158.46
550.55	-270.46
550.672	-310.46
550.795	241.54
550.917	-278.46
551.04	-179.46
551.163	-89.46
551.285	34.54
551.408	6.54
551.531	315.54
551.653	-347.46
551.776	-104.46
551.898	-85.46
552.021	-116.46
552.143	-233.46
552.266	-191.46
552.389	-199.46
552.511	-342.46
552.634	-374.46
552.756	-333.46
552.879	193.54
553.001	40.54
553.124	-390.46
553.246	-286.46
553.369	62.54
553.492	-201.46
553.614	19.54
553.737	-489.46
553.859	-33.46
553.982	-6.46
554.104	-133.46
554.227	-329.46
554.349	-197.46
554.472	-180.46
554.594	-461.46
554.716	17.54
554.839	-43.46
554.961	-114.46
555.084	-341.46
555.206	-124.46
555.329	-365.46
555.451	-366.46
555.574	-91.46
555.696	-325.46
555.819	-181.46
555.941	-185.46
556.063	-72.46
556.186	-206.46
556.308	-113.46
556.431	221.54
556.553	-6.46
556.675	-289.46
556.798	-234.46
556.92	-56.46
557.043	-287.46
557.165	-361.46
557.287	-11.46
557.41	-199.46
557.532	-155.46
557.654	-235.46
557.777	34.54
557.899	-180.46
558.021	-186.46
558.144	39.54
558.266	69.54
558.388	237.54
558.511	-245.46
558.633	-156.46
558.755	-265.46
558.878	-304.46
559	-27.46
559.122	-406.46
559.244	-286.46
559.367	-184.46
559.489	10.54
559.611	119.54
559.734	-170.46
559.856	-160.46
559.978	-180.46
560.1	-189.46
560.223	-174.46
560.345	63.54
560.467	-362.46
560.589	-205.46
560.712	-229.46
560.834	209.54
560.956	-373.46
561.078	-205.46
561.2	-88.46
561.323	57.54
561.445	-378.46
561.567	-274.46
561.689	-353.46
561.811	-62.46
561.934	-210.46
562.056	-199.46
562.178	-81.46
562.3	-232.46
562.422	-74.46
562.544	-175.46
562.666	3.54
562.789	-116.46
562.911	-143.46
563.033	-4.46
563.155	-29.46
563.277	-271.46
563.399	-454.46
563.521	-227.46
563.643	-331.46
563.766	-185.46
563.888	12.54
564.01	-140.46
564.132	-331.46
564.254	-358.46
564.376	48.54
564.498	-148.46
564.62	149.54
564.742	-152.46
564.864	-378.46
564.986	-149.46
565.108	251.54
565.23	-267.46
565.352	-45.46
565.474	-108.46
565.597	140.54
565.719	133.54
565.841	-366.46
565.963	-123.46
566.085	-132.46
566.207	-166.46
566.329	23.54
566.451	27.54
566.573	-225.46
566.695	-219.46
566.817	215.54
566.938	-339.46
567.06	-212.46
567.182	-127.46
567.304	-196.46
567.426	-350.46
567.548	58.54
567.67	-118.46
567.792	-201.46
567.914	-261.46
568.036	-167.46
568.158	-170.46
568.28	-310.46
568.402	-61.46
568.524	-222.46
568.646	-303.46
568.767	-255.46
568.889	29.54
569.011	-179.46
569.133	-238.46
569.255	-389.46
569.377	-331.46
569.499	-131.46
569.621	-232.46
569.742	208.54
569.864	-8.46
569.986	266.54
570.108	-5.46
570.23	-336.46
570.352	42.54
570.473	-99.46
570.595	-191.46
570.717	-354.46
570.839	-148.46
570.961	4.54
571.082	-210.46
571.204	-300.46
571.326	-293.46
571.448	1.54
571.57	12.54
571.691	-129.46
571.813	-121.46
571.935	42.54
572.057	-165.46
572.178	-306.46
572.3	81.54
572.422	102.54
572.544	182.54
572.665	-284.46
572.787	-328.46
572.909	94.54
573.031	-49.46
573.152	-369.46
573.274	-63.46
573.396	-38.46
573.517	-37.46
573.639	-437.46
573.761	-297.46
573.882	-149.46
574.004	-16.46
574.126	-315.46
574.247	-31.46
574.369	-45.46
574.491	-161.46
574.612	-301.46
574.734	-173.46
574.856	-136.46
574.977	-53.46
575.099	-158.46
575.221	-142.46
575.342	-174.46
575.464	-113.46
575.585	-64.46
575.707	-310.46
575.829	116.54
575.95	27.54
576.072	-242.46
576.193	-293.46
576.315	-192.46
576.437	-198.46
576.558	-186.46
576.68	-214.46
576.801	195.54
576.923	-320.46
577.044	35.54
577.166	-372.46
577.287	-131.46
577.409	-188.46
577.531	-188.46
577.652	-60.46
577.774	-376.46
577.895	-155.46
578.017	-307.46
578.138	-297.46
578.26	-171.46
578.381	-70.46
578.503	-300.46
578.624	-257.46
578.746	-336.46
578.867	-209.46
578.988	-114.46
579.11	155.54
579.231	-91.46
579.353	-232.46
579.474	-170.46
579.596	-233.46
579.717	23.54
579.839	-136.46
579.96	-479.46
580.081	-92.46
580.203	-197.46
580.324	-95.46
580.446	-31.46
580.567	-135.46
580.688	190.54
580.81	-299.46
580.931	-201.46
581.053	-376.46
581.174	-129.46
581.295	-246.46
581.417	-53.46
581.538	-56.46
581.659	-38.46
581.781	-181.46
581.902	-245.46
582.024	-318.46
582.145	-291.46
582.266	-275.46
582.388	-211.46
582.509	-342.46
582.63	-132.46
582.751	-228.46
582.873	-215.46
582.994	-239.46
583.115	-188.46
583.237	-104.46
583.358	-283.46
583.479	-418.46
583.6	16.54
583.722	-178.46
583.843	-311.46
583.964	-35.46
584.086	-223.46
584.207	-67.46
584.328	-348.46
584.449	-116.46
584.57	-112.46
584.692	-131.46
584.813	837.54
584.934	-124.46
585.055	-283.46
585.177	-19.46
585.298	-129.46
585.419	-344.46
585.54	170.54
585.661	-68.46
585.783	-136.46
585.904	-291.46
586.025	60.54
586.146	-289.46
586.267	-216.46
586.388	-203.46
586.51	272.54
586.631	-318.46
586.752	-344.46
586.873	-206.46
586.994	-364.46
587.115	-309.46
587.236	-264.46
587.357	-394.46
587.479	-260.46
587.6	44.54
587.721	-257.46
587.842	-302.46
587.963	134.54
588.084	69.54
588.205	-307.46
588.326	-226.46
588.447	-140.46
588.568	-209.46
588.689	-134.46
588.81	-92.46
588.931	-183.46
589.052	-267.46
589.174	-295.46
589.295	-105.46
589.416	-108.46
589.537	56.54
589.658	-250.46
589.779	-401.46
589.9	42.54
590.021	-224.46
590.142	-248.46
590.263	-398.46
590.384	-131.46
590.505	189.54
590.626	-307.46
590.747	-124.46
590.867	-45.46
590.988	-70.46
591.109	-198.46
591.23	25.54
591.351	-14.46
591.472	-140.46
591.593	-231.46
591.714	-152.46
591.835	-211.46
591.956	-230.46
592.077	-397.46
592.198	-189.46
592.319	-121.46
592.44	-40.46
592.56	-259.46
592.681	-405.46
592.802	-61.46
592.923	-192.46
593.044	-294.46
593.165	-351.46
593.286	-55.46
593.407	-278.46
593.527	-1.46
593.648	-304.46
593.769	-81.46
593.89	91.54
594.011	-169.46
594.132	-259.46
594.252	-110.46
594.373	-298.46
594.494	-389.46
594.615	-224.46
594.736	-221.46
594.856	21.54
594.977	-331.46
595.098	-101.46
595.219	-311.46
595.34	-93.46
595.46	-332.46
595.581	173.54
595.702	-154.46
595.823	-340.46
595.943	-133.46
596.064	-202.46
596.185	120.54
596.306	-377.46
596.426	-318.46
596.547	-361.46
596.668	-93.46
596.788	-123.46
596.909	-165.46
597.03	-105.46
597.151	-132.46
597.271	-255.46
597.392	-205.46
597.513	-54.46
597.633	-8.46
597.754	-101.46
597.875	-197.46
597.995	73.54
598.116	-126.46
598.237	-163.46
598.357	-286.46
598.478	-309.46
598.599	174.54
598.719	-173.46
598.84	-375.46
598.96	-274.46
599.081	-140.46
599.202	-185.46
599.322	-308.46
599.443	-330.46
599.563	-49.46
599.684	28.54
599.805	-235.46
599.925	-398.46
600.046	210.54
600.166	-219.46
600.287	-115.46
600.407	-164.46
600.528	51.54
600.649	-42.46
600.769	-145.46
600.89	-356.46
601.01	-42.46
601.131	-229.46
601.251	129.54
601.372	-126.46
601.492	-237.46
601.613	-288.46
601.733	-268.46
601.854	220.54
601.974	350.54
602.095	135.54
602.215	-344.46
602.336	-363.46
602.456	215.54
602.577	-253.46
602.697	656.54
602.817	-28.46
602.938	-125.46
603.058	-60.46
603.179	-348.46
603.299	-309.46
603.42	-339.46
603.54	-67.46
603.66	-372.46
603.781	-115.46
603.901	-225.46
604.022	102.54
604.142	-154.46
604.262	-156.46
604.383	-245.46
604.503	87.54
604.624	-283.46
604.744	-111.46
604.864	-25.46
604.985	-213.46
605.105	-109.46
605.225	-137.46
605.346	-136.46
605.466	-6.46
605.586	165.54
605.707	287.54
605.827	-333.46
605.947	-191.46
606.068	-189.46
606.188	-207.46
606.308	-244.46
606.429	42.54
606.549	-242.46
606.669	-381.46
606.789	-278.46
606.91	-22.46
607.03	-293.46
607.15	-255.46
607.27	-89.46
607.391	-14.46
607.511	-248.46
607.631	-303.46
607.751	135.54
607.872	-14.46
607.992	-328.46
608.112	18.54
608.232	-231.46
608.353	-305.46
608.473	-250.46
608.593	84.54
608.713	299.54
608.833	-146.46
608.954	-283.46
609.074	-242.46
609.194	-299.46
609.314	213.54
609.434	-23.46
609.554	-153.46
609.675	108.54
609.795	-219.46
609.915	-295.46
610.035	267.54
610.155	-191.46
610.275	-235.46
610.395	-40.46
610.516	-368.46
610.636	-110.46
610.756	-60.46
610.876	-61.46
610.996	-296.46
611.116	166.54
611.236	-368.46
611.356	-277.46
611.476	-154.46
611.596	-121.46
611.716	115.54
611.836	-328.46
611.957	-340.46
612.077	-152.46
612.197	-60.46
612.317	-306.46
612.437	65.54
612.557	17.54
612.677	-189.46
612.797	-131.46
612.917	-308.46
613.037	-46.46
613.157	-126.46
613.277	-134.46
613.397	117.54
613.517	123.54
613.637	-254.46
613.757	-170.46
613.877	-266.46
613.997	-71.46
614.117	-279.46
614.237	-251.46
614.356	-101.46
614.476	65.54
614.596	5.54
614.716	-181.46
614.836	-204.46
614.956	-20.46
615.076	-96.46
615.196	-357.46
615.316	-125.46
615.436	-51.46
615.556	162.54
615.676	159.54
615.795	-106.46
615.915	-134.46
616.035	-258.46
616.155	-174.46
616.275	-297.46
616.395	-206.46
616.515	0.54
616.635	-419.46
616.754	-456.46
616.874	-14.46
616.994	-127.46
617.114	197.54
617.234	39.54
617.354	36.54
617.473	336.54
617.593	-214.46
617.713	-144.46
617.833	-64.46
617.953	-107.46
618.072	-468.46
618.192	-235.46
618.312	118.54
618.432	73.54
618.551	-304.46
618.671	-277.46
618.791	-16.46
618.911	-74.46
619.03	-203.46
619.15	-135.46
619.27	-198.46
619.39	-255.46
619.509	-192.46
619.629	-188.46
619.749	-291.46
619.868	-106.46
619.988	-380.46
620.108	-246.46
620.228	705.54
620.347	-88.46
620.467	-304.46
620.587	-316.46
620.706	74.54
620.826	-271.46
620.946	-304.46
621.065	-19.46
621.185	265.54
621.305	-221.46
621.424	-225.46
621.544	-445.46
621.663	-35.46
621.783	-206.46
621.903	187.54
622.022	-326.46
622.142	-131.46
622.261	150.54
622.381	-136.46
622.501	-59.46
622.62	-193.46
622.74	-104.46
622.859	-221.46
622.979	35.54
623.099	-202.46
623.218	-33.46
623.338	119.54
623.457	-61.46
623.577	-215.46
623.696	-88.46
623.816	-379.46
623.935	-298.46
624.055	-258.46
624.174	-124.46
624.294	-164.46
624.413	-374.46
624.533	-72.46
624.652	91.54
624.772	-296.46
624.891	-382.46
625.011	16.54
625.13	-192.46
625.25	-351.46
625.369	-242.46
625.489	-187.46
625.608	-249.46
625.728	-185.46
625.847	-148.46
625.966	-284.46
626.086	-269.46
626.205	-332.46
626.325	-140.46
626.444	-74.46
626.564	176.54
626.683	-1.46
626.802	-18.46
626.922	110.54
627.041	-43.46
627.161	-184.46
627.28	-15.46
627.399	24.54
627.519	-94.46
627.638	-400.46
627.757	-302.46
627.877	-177.46
627.996	-156.46
628.115	-45.46
628.235	-53.46
628.354	-318.46
628.473	-85.46
628.593	98.54
628.712	-140.46
628.831	-99.46
628.951	-338.46
629.07	67.54
629.189	-114.46
629.309	-173.46
629.428	199.54
629.547	-369.46
629.666	-44.46
629.786	-142.46
629.905	-289.46
630.024	-44.46
630.143	-92.46
630.263	-157.46
630.382	241.54
630.501	-236.46
630.62	-243.46
630.74	-291.46
630.859	78.54
630.978	-201.46
631.097	-354.46
631.216	-296.46
631.336	152.54
631.455	-294.46
631.574	-243.46
631.693	-54.46
631.812	-166.46
631.932	-403.46
632.051	67.54
632.17	266.54
632.289	52.54
632.408	-255.46
632.527	-170.46
632.646	-99.46
632.766	-233.46
632.885	179.54
633.004	-384.46
633.123	-168.46
633.242	-239.46
633.361	593.54
633.48	-296.46
633.599	-261.46
633.718	66.54
633.838	-121.46
633.957	-394.46
634.076	-77.46
634.195	-154.46
634.314	-49.46
634.433	-45.46
634.552	-205.46
634.671	-75.46
634.79	187.54
634.909	29.54
635.028	-42.46
635.147	-27.46
635.266	-303.46
635.385	-121.46
635.504	-300.46
635.623	-36.46
635.742	-362.46
635.861	-360.46
635.98	-100.46
636.099	-219.46
636.218	-171.46
636.337	-138.46
636.456	275.54
636.575	-18.46
636.694	-142.46
636.813	-360.46
636.932	-335.46
637.051	-121.46
637.17	-388.46
637.289	-106.46
637.408	-318.46
637.526	-109.46
637.645	-468.46
637.764	-363.46
637.883	-210.46
638.002	35.54
638.121	356.54
638.24	-265.46
638.359	46.54
638.478	-186.46
638.597	-292.46
638.715	365.54
638.834	-139.46
638.953	38.54
639.072	-338.46
639.191	-370.46
639.31	33.54
639.428	-115.46
639.547	-110.46
639.666	-33.46
639.785	-44.46
639.904	-106.46
640.023	-382.46
640.141	-261.46
640.26	-162.46
640.379	-20.46
640.498	-401.46
640.616	-123.46
640.735	-143.46
640.854	44.54
640.973	-346.46
641.092	-24.46
641.21	-51.46
641.329	-146.46
641.448	-25.46
641.567	204.54
641.685	-119.46
641.804	-179.46
641.923	-164.46
642.041	-293.46
642.16	-173.46
642.279	71.54
642.398	-219.46
642.516	-280.46
642.635	125.54
642.754	-181.46
642.872	32.54
642.991	40.54
643.11	-217.46
643.228	-292.46
643.347	-360.46
643.466	-357.46
643.584	33.54
643.703	247.54
643.821	-160.46
643.94	-105.46
644.059	-45.46
644.177	36.54
644.296	-352.46
644.415	-245.46
644.533	-121.46
644.652	-7.46
644.77	-359.46
644.889	-317.46
645.008	20.54
645.126	-258.46
645.245	-29.46
645.363	41.54
645.482	-55.46
645.6	-142.46
645.719	-226.46
645.837	-247.46
645.956	-54.46
646.074	-285.46
646.193	-286.46
646.312	-0.46
646.43	168.54
646.549	210.54
646.667	-454.46
646.786	-334.46
646.904	52.54
647.023	-24.46
647.141	-346.46
647.26	-28.46
647.378	424.54
647.496	-157.46
647.615	-87.46
647.733	-124.46
647.852	184.54
647.97	-174.46
648.089	-2.46
648.207	-46.46
648.326	105.54
648.444	-140.46
648.562	-183.46
648.681	-131.46
648.799	-131.46
648.918	-68.46
649.036	-118.46
649.154	-241.46
649.273	63.54
649.391	-155.46
649.51	-313.46
649.628	-349.46
649.746	215.54
649.865	-205.46
649.983	-336.46
650.101	-144.46
650.22	-103.46
650.338	-217.46
650.456	-237.46
650.575	-267.46
650.693	-283.46
650.811	-9.46
650.93	-374.46
651.048	1060.54
651.166	331.54
651.285	-141.46
651.403	-45.46
651.521	-133.46
651.639	-114.46
651.758	-138.46
651.876	177.54
651.994	-326.46
652.112	85.54
652.231	-101.46
652.349	-319.46
652.467	-476.46
652.585	-105.46
652.704	-10.46
652.822	-422.46
652.94	-402.46
653.058	-22.46
653.176	-213.46
653.295	-165.46
653.413	-21.46
653.531	-210.46
653.649	-129.46
653.767	-311.46
653.886	-322.46
654.004	-237.46
654.122	140.54
654.24	-372.46
654.358	-321.46
654.476	-136.46
654.594	182.54
654.713	-218.46
654.831	-434.46
654.949	-165.46
655.067	-44.46
655.185	-353.46
655.303	-274.46
655.421	-176.46
655.539	115.54
655.658	-167.46
655.776	-210.46
655.894	-0.46
656.012	164.54
656.13	-431.46
656.248	-237.46
656.366	-243.46
656.484	-148.46
656.602	-332.46
656.72	-270.46
656.838	-53.46
656.956	-175.46
657.074	-58.46
657.192	-131.46
657.31	-236.46
657.428	-191.46
657.546	-107.46
657.664	-125.46
657.782	-129.46
657.9	80.54
658.018	-258.46
658.136	-200.46
658.254	43.54
658.372	109.54
658.49	-334.46
658.608	-321.46
658.726	-38.46
658.844	-8.46
658.962	-264.46
659.08	-350.46
659.198	-45.46
659.316	-129.46
